SessionID,SessionDate,SessionDuration,SessionFrequency,RecordID,Timestamp,timeIntervalSince1970,GyroX,GyroY,GyroZ,AccX,AccY,AccZ,MagX,MagY,MagZ,WatchTimestamp,WatchtImeIntervalSince1970,WatchGyroX,WatchGyroY,WatchGyroZ,WatchAccX,WatchAccY,WatchAccZ
0,2021-02-05 09:40:16.8060,00:02,1,0,2021-02-05 09:40:17.8060,1612536017.805563,0.12369105219841003,0.06499018520116806,-0.06331133097410202,0.0314178466796875,-0.390594482421875,-0.8806610107421875,-52.718597412109375,13.908279418945312,9.643325805664062,,,,,,,,,,
0,2021-02-05 09:40:16.8060,00:02,1,0,2021-02-05 09:40:18.8040,1612536018.8044538,-0.13770726323127747,-0.027308320626616478,0.029929403215646744,0.0137481689453125,-0.4498748779296875,-0.9173736572265625,-51.55442810058594,16.532196044921875,10.205825805664062,,,,,,,,,,
1,2021-02-05 10:09:23.9260,00:21,60,0,2021-02-05 10:09:23.9570,1612537763.956689,-0.7477093935012817,-0.03347593545913696,-0.2924606204032898,0.014068603515625,-0.9098358154296875,-0.4223175048828125,-32.63398742675781,18.9969482421875,65.7498779296875,2021-02-05 10:09:23.7200,1612537763.720159,0.016539229080080986,0.0020447801798582077,-0.002290966920554638,0.30706787109375,0.0157012939453125,-0.9526519775390625,
1,2021-02-05 10:09:23.9260,00:21,60,0,2021-02-05 10:09:23.9580,1612537763.9580889,-0.7477093935012817,-0.03347593545913696,-0.2924606204032898,0.014068603515625,-0.9098358154296875,-0.4223175048828125,-32.63398742675781,18.9969482421875,65.7498779296875,2021-02-05 10:09:23.8210,1612537763.820506,0.010942727327346802,-0.0030349763110280037,-0.004722633399069309,0.3073119819164276,0.0152740478515625,-0.9569244384765625,
1,2021-02-05 10:09:23.9260,00:21,60,0,2021-02-05 10:09:23.9820,1612537763.982355,-0.000767523015383631,-0.004318049177527428,0.005751362536102533,0.0136871337890625,-0.9087982177734375,-0.4215240478515625,-32.71720886230469,19.285888671875,65.41845703125,2021-02-05 10:09:23.8210,1612537763.82065,0.011392474174499512,-0.010664401575922966,-4.2526982724666595e-05,0.3074798583984375,0.01875305362045765,-0.9522705078125,
1,2021-02-05 10:09:23.9260,00:21,60,0,2021-02-05 10:09:24.0000,1612537764.000231,0.0001424791116733104,-0.0017670074012130499,0.0008253136184066534,0.0128021240234375,-0.90911865234375,-0.420989990234375,-32.608917236328125,19.230743408203125,65.356201171875,2021-02-05 10:09:23.8210,1612537763.820703,0.004124574828892946,-0.0021369149908423424,0.002964247949421406,0.2989349961280823,0.011306768283247948,-0.9489898681640625,
1,2021-02-05 10:09:23.9260,00:21,60,0,2021-02-05 10:09:24.0170,1612537764.016887,-0.0018916432745754719,-0.0018335863715037704,0.002091380301862955,0.0133209228515625,-0.9096527099609375,-0.42156982421875,-32.740264892578125,19.392929077148438,65.40602111816406,2021-02-05 10:09:23.8210,1612537763.820751,0.010949816554784775,0.0128011554479599,0.0016175545752048492,0.2994690537452698,0.014450078830122948,-0.9497528076171875,
1,2021-02-05 10:09:23.9260,00:21,60,0,2021-02-05 10:09:24.0340,1612537764.034056,-0.005648830905556679,-0.003976099658757448,0.003231213428080082,0.013275146484375,-0.9095458984375,-0.420806884765625,-32.75706481933594,19.287002563476562,65.3948974609375,2021-02-05 10:09:24.3040,1612537764.304463,0.0477178618311882,-0.0021281270310282707,0.003446812741458416,0.3079528510570526,0.02621460147202015,-0.95623779296875,
1,2021-02-05 10:09:23.9260,00:21,60,0,2021-02-05 10:09:24.0510,1612537764.0511088,-0.0031313446816056967,-0.002344380598515272,0.004441619850695133,0.0133514404296875,-0.90966796875,-0.421844482421875,-32.75706481933594,19.287002563476562,65.3948974609375,2021-02-05 10:09:24.3060,1612537764.305526,0.015111016109585762,-0.009926838800311089,0.0022004535421729088,0.30699148774147034,0.0025939922779798508,-0.949249267578125,
1,2021-02-05 10:09:23.9260,00:21,60,0,2021-02-05 10:09:24.0690,1612537764.069046,-0.0032168321777135134,-0.004972121678292751,0.002409095410257578,0.01397705078125,-0.91033935546875,-0.4212799072265625,-32.52012634277344,19.18170166015625,66.01849365234375,2021-02-05 10:09:24.3060,1612537764.3056011,-0.014375820755958557,0.009030917659401894,0.004271660465747118,0.30104050040245056,0.012145989574491978,-0.952911376953125,
1,2021-02-05 10:09:23.9260,00:21,60,0,2021-02-05 10:09:24.0860,1612537764.086141,0.0001395496365148574,-0.0024535702541470528,0.0015720640076324344,0.0136566162109375,-0.90960693359375,-0.4214935302734375,-32.75848388671875,19.215408325195312,65.38236999511719,2021-02-05 10:09:24.3060,1612537764.30565,0.021249908953905106,-0.0026817088946700096,0.004721934907138348,0.3061980605125427,0.0245056115090847,-0.9516602158546448,
1,2021-02-05 10:09:23.9260,00:21,60,0,2021-02-05 10:09:24.1030,1612537764.102707,-0.0007225155713967979,-0.0037473340053111315,0.0034072482958436012,0.0134124755859375,-0.909454345703125,-0.421661376953125,-32.71467590332031,19.201385498046875,65.42274475097656,2021-02-05 10:09:24.3070,1612537764.306541,0.008545678108930588,0.006865767762064934,-0.0032740067690610886,0.30322250723838806,0.006759637966752052,-0.9468384385108948,
1,2021-02-05 10:09:23.9260,00:21,60,0,2021-02-05 10:09:24.1180,1612537764.118452,-0.0013851100811734796,-0.002487658755853772,0.0031129689887166023,0.0135498046875,-0.9088592529296875,-0.421539306640625,-32.74095153808594,19.364608764648438,65.30162048339844,2021-02-05 10:09:24.3070,1612537764.306634,-0.002495132153853774,0.0010259877890348434,-0.00225880928337574,0.30624377727508545,0.017135613597929478,-0.960601806640625,
1,2021-02-05 10:09:23.9260,00:21,60,0,2021-02-05 10:09:24.1350,1612537764.135305,0.0006775081856176257,-0.005759618245065212,0.002603772561997175,0.0136871337890625,-0.908966064453125,-0.4210052490234375,-32.72389221191406,19.313491821289062,65.51380920410156,2021-02-05 10:09:24.3070,1612537764.306682,0.010427426546812057,-0.005311626009643078,-0.0007819533348083496,0.30419909954071045,0.017059319652616978,-0.9539031982421875,
1,2021-02-05 10:09:23.9260,00:21,60,0,2021-02-05 10:09:24.1520,1612537764.151822,-0.0007134608458727598,-0.0041731735691428185,0.0020245350897312164,0.0129852294921875,-0.9087982177734375,-0.42218017578125,-32.72389221191406,19.313491821289062,65.51380920410156,2021-02-05 10:09:24.3070,1612537764.306911,0.009762793779373169,-0.016211189329624176,0.0035882270894944668,0.3004758059978485,0.014312734827399254,-0.9519653916358948,
1,2021-02-05 10:09:23.9260,00:21,60,0,2021-02-05 10:09:24.1680,1612537764.1683412,-0.0018399780383333564,-0.002808036981150508,0.003495931625366211,0.013916015625,-0.91058349609375,-0.42144775390625,-32.645721435546875,19.089324951171875,65.68305969238281,2021-02-05 10:09:24.3070,1612537764.306964,0.01288868859410286,-0.013263690285384655,0.0014442489482462406,0.30168139934539795,0.017135614529252052,-0.9520416259765625,
1,2021-02-05 10:09:23.9260,00:21,60,0,2021-02-05 10:09:24.1840,1612537764.183753,-0.0017965685110539198,-0.004560929723083973,0.00015579492901451886,0.0135498046875,-0.90911865234375,-0.4208984375,-32.712738037109375,19.111495971679688,65.25950622558594,2021-02-05 10:09:24.3070,1612537764.307013,0.0037336437962949276,0.00892425887286663,-0.0006591156125068665,0.29708847403526306,0.009338372386991978,-0.946807861328125,
1,2021-02-05 10:09:23.9260,00:21,60,0,2021-02-05 10:09:24.2020,1612537764.202076,-0.002520682057365775,-0.006352438125759363,0.0032402679789811373,0.0127716064453125,-0.9098358154296875,-0.4209442138671875,-32.69926452636719,19.188278198242188,65.31410217285156,2021-02-05 10:09:24.3070,1612537764.307059,0.03787899389863014,0.0016508093103766441,-0.0013462109491229057,0.30873093008995056,0.022628779523074627,-0.9504089951515198,
1,2021-02-05 10:09:23.9260,00:21,60,0,2021-02-05 10:09:24.2180,1612537764.2184172,-0.0005137237603776157,-0.0015928366919979453,0.0017928400775417686,0.013580322265625,-0.9095611572265625,-0.42120361328125,-32.817596435546875,19.206085205078125,65.32769775390625,2021-02-05 10:09:24.3070,1612537764.307106,0.023862019181251526,-0.00044243503361940384,0.0023949979804456234,0.30226120352745056,0.016647334210574627,-0.954498291015625,
1,2021-02-05 10:09:23.9260,00:21,60,0,2021-02-05 10:09:24.2350,1612537764.2352,-0.002094576135277748,-0.004316451493650675,0.000592020689509809,0.0136871337890625,-0.9093017578125,-0.4208831787109375,-32.853912353515625,19.228317260742188,65.32777404785156,2021-02-05 10:09:24.3070,1612537764.30717,-0.019172757863998413,0.0027472330257296562,-0.002748364582657814,0.30488571524620056,0.0029144249856472015,-0.9510955810546875,
1,2021-02-05 10:09:23.9260,00:21,60,0,2021-02-05 10:09:24.2520,1612537764.251642,-0.002216548891738057,-0.006716758478432894,0.003326021833345294,0.013671875,-0.9093017578125,-0.4225921630859375,-32.853912353515625,19.228317260742188,65.32777404785156,2021-02-05 10:09:24.3070,1612537764.3072162,-0.005473241675645113,0.0063943881541490555,-0.007570219226181507,0.3012235164642334,0.02127074357122183,-0.9497833847999573,
1,2021-02-05 10:09:23.9260,00:21,60,0,2021-02-05 10:09:24.2690,1612537764.268569,-0.0014168017078191042,-0.0034964641090482473,0.0023872575256973505,0.013580322265625,-0.9091796875,-0.4227447509765625,-32.69108581542969,19.001693725585938,65.43522644042969,2021-02-05 10:09:24.3070,1612537764.307261,0.0005973107181489468,0.012521345168352127,0.0020600389689207077,0.3003690242767334,0.008331291377544403,-0.9506683945655823,
1,2021-02-05 10:09:23.9260,00:21,60,0,2021-02-05 10:09:24.2850,1612537764.284995,-0.0008234494016505778,-0.0035574506036937237,7.909588020993397e-05,0.0139923095703125,-0.9101715087890625,-0.421295166015625,-32.712615966796875,19.046005249023438,65.41632080078125,2021-02-05 10:09:24.3070,1612537764.307306,-0.033679377287626266,0.015924420207738876,-0.005133425816893578,0.30340564250946045,0.004455561749637127,-0.9524688720703125,
1,2021-02-05 10:09:23.9260,00:21,60,0,2021-02-05 10:09:24.3020,1612537764.301899,-0.0020724718924611807,-0.004463457968086004,0.002263686852529645,0.0130767822265625,-0.9099884033203125,-0.42266845703125,-32.637542724609375,19.302276611328125,65.52555847167969,2021-02-05 10:09:24.3430,1612537764.3433828,-0.13799820840358734,0.008001028560101986,-0.0036301380023360252,0.311080664396286,-0.012283334508538246,-0.94769287109375,
1,2021-02-05 10:09:23.9260,00:21,60,0,2021-02-05 10:09:24.3180,1612537764.318399,-0.002141447737812996,-0.002600576728582382,0.00141041015740484,0.0136260986328125,-0.9092559814453125,-0.42181396484375,-32.76165771484375,19.1962890625,65.05241394042969,2021-02-05 10:09:24.3580,1612537764.357851,-0.4026618003845215,0.061124078929424286,-0.01646803878247738,0.2946470081806183,-0.04853822477161884,-0.9254913330078125,
1,2021-02-05 10:09:23.9260,00:21,60,0,2021-02-05 10:09:24.3350,1612537764.335118,-9.614011651137844e-05,-0.004027764778584242,0.0009326389990746975,0.013275146484375,-0.9098968505859375,-0.420745849609375,-32.788970947265625,19.186721801757812,65.09394836425781,2021-02-05 10:09:24.3890,1612537764.3889,-0.8596205711364746,0.26579758524894714,-0.05917062610387802,0.266311377286911,-0.05673220381140709,-0.9096222519874573,
1,2021-02-05 10:09:23.9260,00:21,60,0,2021-02-05 10:09:24.3520,1612537764.351564,-0.000401604687795043,-0.0049825082533061504,0.0012812467757612467,0.014068603515625,-0.9091644287109375,-0.422119140625,-32.74462890625,19.053939819335938,65.40695190429688,2021-02-05 10:09:24.4270,1612537764.427412,-1.7798818349838257,0.4767841696739197,-0.17548970878124237,0.2905271053314209,-0.08335883170366287,-0.9589844346046448,
1,2021-02-05 10:09:23.9260,00:21,60,0,2021-02-05 10:09:24.3680,1612537764.368465,-0.0013523531379178166,-0.0035598473623394966,0.0008556736283935606,0.0126800537109375,-0.90911865234375,-0.4232025146484375,-32.74462890625,19.053939819335938,65.40695190429688,2021-02-05 10:09:24.4460,1612537764.446445,-3.0842783451080322,0.4111788272857666,-0.587283194065094,0.3707577884197235,0.01535022258758545,-1.0022583603858948,
1,2021-02-05 10:09:23.9260,00:21,60,0,2021-02-05 10:09:24.3850,1612537764.384917,-0.00017949705943465233,-0.002953978255391121,0.0004953479510731995,0.0140838623046875,-0.9093017578125,-0.422271728515625,-32.6927490234375,19.133544921875,64.9283447265625,2021-02-05 10:09:24.4790,1612537764.479433,-3.56809663772583,0.024952847510576248,-0.8900328278541565,0.36917081475257874,0.2359616607427597,-0.9818115830421448,
1,2021-02-05 10:09:23.9260,00:21,60,0,2021-02-05 10:09:24.4020,1612537764.401977,-0.0026043052785098553,-0.0038155107758939266,0.0012178635224699974,0.0133209228515625,-0.90899658203125,-0.422027587890625,-32.767822265625,19.292373657226562,65.31996154785156,2021-02-05 10:09:24.5060,1612537764.506359,-4.146487236022949,-0.45832952857017517,-1.081610083580017,0.3345639407634735,0.358047217130661,-0.9337463974952698,
1,2021-02-05 10:09:23.9260,00:21,60,0,2021-02-05 10:09:24.4180,1612537764.418367,-0.0014391721924766898,-0.001722798915579915,0.003534813644364476,0.012451171875,-0.910125732421875,-0.4212188720703125,-32.77874755859375,19.130828857421875,65.06011962890625,2021-02-05 10:09:24.5390,1612537764.538567,-6.733826637268066,-0.6214945912361145,-1.6626347303390503,0.2949674129486084,0.13180500268936157,-0.9021303057670593,
1,2021-02-05 10:09:23.9260,00:21,60,0,2021-02-05 10:09:24.4350,1612537764.435363,-0.001942243310622871,-0.0035481294617056847,0.0017827199772000313,0.0131683349609375,-0.9091949462890625,-0.4219207763671875,-32.60517883300781,19.185440063476562,65.35008239746094,2021-02-05 10:09:24.5660,1612537764.565915,-7.466917514801025,-0.2915765345096588,-2.162120819091797,0.1374814510345459,0.84150630235672,-0.5837252736091614,
1,2021-02-05 10:09:23.9260,00:21,60,0,2021-02-05 10:09:24.4520,1612537764.451606,-0.0035111114848405123,-0.004721251782029867,-0.0003962783666793257,0.01336669921875,-0.9103240966796875,-0.421966552734375,-32.70487976074219,19.01690673828125,65.283203125,2021-02-05 10:09:24.6010,1612537764.601475,-4.660859107971191,0.3022289276123047,-2.038057327270508,0.03839088976383209,1.228117823600769,-0.19711357355117798,
1,2021-02-05 10:09:23.9260,00:21,60,0,2021-02-05 10:09:24.4690,1612537764.468576,0.00014887070574332029,-0.004600078333169222,0.0008380967774428427,0.0133819580078125,-0.90985107421875,-0.420928955078125,-32.70487976074219,19.01690673828125,65.283203125,2021-02-05 10:09:24.6260,1612537764.625711,1.5070679187774658,0.38356781005859375,-1.2632396221160889,0.13845807313919067,1.4890277981758118,0.25692683458328247,
1,2021-02-05 10:09:23.9260,00:21,60,0,2021-02-05 10:09:24.4850,1612537764.4851708,-0.0018903117161244154,-0.0012681973166763783,0.0024381240364164114,0.012939453125,-0.9095001220703125,-0.4228973388671875,-32.54583740234375,19.074142456054688,65.58462524414062,2021-02-05 10:09:24.6840,1612537764.6835098,12.90931224822998,1.6734851598739624,2.624826669692993,-0.09063743054866791,1.2717885971069336,0.4953761100769043,
1,2021-02-05 10:09:23.9260,00:21,60,0,2021-02-05 10:09:24.5020,1612537764.501889,-0.0027076357509940863,-0.0034256239887326956,0.0021164140198379755,0.013275146484375,-0.9098968505859375,-0.4213409423828125,-32.652618408203125,19.014541625976562,65.29728698730469,2021-02-05 10:09:24.6990,1612537764.698837,19.591781616210938,-0.5963102579116821,3.0219595432281494,0.1140134334564209,-0.16885408759117126,0.08444207906723022,
1,2021-02-05 10:09:23.9260,00:21,60,0,2021-02-05 10:09:24.5180,1612537764.518476,-0.002368615474551916,-0.0025355955585837364,0.0001930791768245399,0.0131988525390625,-0.909088134765625,-0.422515869140625,-32.84346008300781,19.187179565429688,65.30073547363281,2021-02-05 10:09:24.8880,1612537764.888482,4.249502658843994,-0.49478623270988464,-0.8002057671546936,0.5860287994146347,-2.089279070496559,-2.1306305527687073,
1,2021-02-05 10:09:23.9260,00:21,60,0,2021-02-05 10:09:24.5360,1612537764.535531,-0.001930791768245399,-0.006848052144050598,0.0030421288684010506,0.0127716064453125,-0.90985107421875,-0.4216766357421875,-32.6224365234375,19.14080810546875,65.40705871582031,2021-02-05 10:09:24.8890,1612537764.888637,-8.51141357421875,1.973970890045166,-0.4255760610103607,0.10668915510177612,-0.6612853950355202,-0.9265900254249573,
1,2021-02-05 10:09:23.9260,00:21,60,0,2021-02-05 10:09:24.5520,1612537764.551766,-0.0014524880098178983,-0.001327053178101778,0.0033992587123066187,0.0132293701171875,-0.9091949462890625,-0.4230804443359375,-32.59716796875,19.196701049804688,65.07511901855469,2021-02-05 10:09:24.8890,1612537764.888692,-9.174147605895996,-0.23621447384357452,-1.7327256202697754,0.5826565027236938,0.5230861902236938,-1.0344849824905396,
1,2021-02-05 10:09:23.9260,00:21,60,0,2021-02-05 10:09:24.5680,1612537764.568471,-0.001743305241689086,-0.004977980628609657,0.003421895671635866,0.0135345458984375,-0.90948486328125,-0.4222412109375,-32.59716796875,19.196701049804688,65.07511901855469,2021-02-05 10:09:24.8890,1612537764.888739,-9.510063171386719,-1.811244010925293,-1.152867317199707,0.4403836131095886,0.2479240894317627,-0.9538576602935791,
1,2021-02-05 10:09:23.9260,00:21,60,0,2021-02-05 10:09:24.5850,1612537764.585006,-0.0014895059866830707,-0.004853610880672932,0.0013792511308565736,0.0130157470703125,-0.910430908203125,-0.4212188720703125,-32.67396545410156,19.19110107421875,65.24140930175781,2021-02-05 10:09:24.8890,1612537764.888787,-14.95715618133545,-0.07145261019468307,-1.6823328733444214,0.04522676765918732,0.14591848850250244,-0.6147468686103821,
1,2021-02-05 10:09:23.9260,00:21,60,0,2021-02-05 10:09:24.6020,1612537764.6019812,-0.0024746092967689037,-0.0022511701099574566,0.002129996195435524,0.0131378173828125,-0.909271240234375,-0.42132568359375,-32.81494140625,19.076400756835938,65.16258239746094,2021-02-05 10:09:24.8890,1612537764.888873,-8.074640274047852,1.1170552968978882,-0.5804251432418823,-0.189255028963089,0.8221568465232849,0.8781570792198181,
1,2021-02-05 10:09:23.9260,00:21,60,0,2021-02-05 10:09:24.6170,1612537764.617035,-0.0015227955300360918,-0.00446878420189023,0.001999235013499856,0.0135040283203125,-0.9099884033203125,-0.421478271484375,-32.68348693847656,18.92840576171875,65.85557556152344,2021-02-05 10:09:25.4460,1612537765.446372,2.8895676136016846,0.006202773656696081,-0.7027078866958618,0.228866346180439,1.988004446029663,0.11396613717079163,
1,2021-02-05 10:09:23.9260,00:21,60,0,2021-02-05 10:09:24.6330,1612537764.632667,-0.0010090717114508152,-0.00455666845664382,0.0037265613209456205,0.013397216796875,-0.909271240234375,-0.421661376953125,-32.73054504394531,18.974136352539062,66.12437438964844,2021-02-05 10:09:25.4470,1612537765.4465818,2.389012336730957,-0.8818280100822449,0.2702808380126953,0.01650979369878769,0.7351357936859131,-0.2967545688152313,
1,2021-02-05 10:09:23.9260,00:21,60,0,2021-02-05 10:09:24.6490,1612537764.6489139,-0.003082609036937356,-0.00446798512712121,0.0024652881547808647,0.0125732421875,-0.9099273681640625,-0.420989990234375,-32.58766174316406,18.925125122070312,66.78231811523438,2021-02-05 10:09:25.4470,1612537765.446682,3.9175755977630615,-1.4868507385253906,0.92557692527771,0.0344540998339653,0.9575937390327454,-0.7516493499279022,
1,2021-02-05 10:09:23.9260,00:21,60,0,2021-02-05 10:09:24.6660,1612537764.665678,-0.002038117265328765,-0.0033305492252111435,0.000934236915782094,0.0135040283203125,-0.910064697265625,-0.4223175048828125,-32.58766174316406,18.925125122070312,66.78231811523438,2021-02-05 10:09:25.4470,1612537765.446772,7.664294242858887,-0.09895027428865433,0.13003937900066376,0.09400912374258041,1.0951517224311829,-0.49986380338668823,
1,2021-02-05 10:09:23.9260,00:21,60,0,2021-02-05 10:09:24.6830,1612537764.68278,-0.00256462418474257,-0.0057127466425299644,0.0001776328426785767,0.0134735107421875,-0.910552978515625,-0.42169189453125,-32.67655944824219,18.99346923828125,66.91813659667969,2021-02-05 10:09:25.4610,1612537765.46088,4.590920925140381,0.21163010597229004,0.3654850125312805,0.2375485524535179,0.21470463275909424,-0.7011116147041321,
1,2021-02-05 10:09:23.9260,00:21,60,0,2021-02-05 10:09:24.6990,1612537764.699158,-0.003266633255407214,-0.004062918480485678,0.0025334651581943035,0.0131378173828125,-0.9092254638671875,-0.4221954345703125,-32.64332580566406,18.950592041015625,66.48570251464844,2021-02-05 10:09:25.4610,1612537765.461038,2.044543504714966,0.2193657010793686,0.16448475420475006,0.23010218143463135,0.7664931416511536,-0.7813268899917603,
1,2021-02-05 10:09:23.9260,00:21,60,0,2021-02-05 10:09:24.7160,1612537764.715674,-0.002020274056121707,-0.003337739733979106,0.0004982774262316525,0.0141143798828125,-0.909423828125,-0.42138671875,-32.49432373046875,18.88165283203125,66.56336975097656,2021-02-05 10:09:25.4610,1612537765.461131,-6.639572620391846,-0.2813699245452881,-0.11851337552070618,0.48806731402873993,0.285993754863739,-1.3758094310760498,
1,2021-02-05 10:09:23.9260,00:21,60,0,2021-02-05 10:09:24.7320,1612537764.731947,-0.001686846255324781,-0.003556119045242667,0.0022122878581285477,0.012725830078125,-0.9090728759765625,-0.4217987060546875,-32.58934020996094,18.931900024414062,66.32937622070312,2021-02-05 10:09:25.4610,1612537765.461228,-11.887002944946289,-0.9096535444259644,-0.9725229144096375,0.2595669627189636,0.17213201522827148,-0.45178359746932983,
1,2021-02-05 10:09:23.9260,00:21,60,0,2021-02-05 10:09:24.7490,1612537764.7485461,1.3582121027866378e-05,-0.0013057478936389089,0.001960885478183627,0.0133209228515625,-0.90972900390625,-0.4219512939453125,-32.47032165527344,18.6478271484375,67.26934814453125,2021-02-05 10:09:25.4610,1612537765.46132,-11.220660209655762,-1.0598530769348145,-2.0148706436157227,0.040374599397182465,1.163083255290985,0.014691978693008423,
1,2021-02-05 10:09:23.9260,00:21,60,0,2021-02-05 10:09:24.7650,1612537764.765482,-0.0005629922379739583,-0.004028297495096922,0.0014516890514642,0.0134124755859375,-0.9090118408203125,-0.4218902587890625,-32.47032165527344,18.6478271484375,67.26934814453125,2021-02-05 10:09:25.4610,1612537765.461407,-10.830235481262207,0.0471280999481678,-1.6847128868103027,0.06211852375417948,0.41840851306915283,0.7221494764089584,
1,2021-02-05 10:09:23.9260,00:21,60,0,2021-02-05 10:09:24.7830,1612537764.782508,-0.0037388119380921125,-0.0018471685471013188,0.0043910201638937,0.01336669921875,-0.908447265625,-0.4230194091796875,-32.544403076171875,18.726104736328125,67.193115234375,2021-02-05 10:09:25.4620,1612537765.4615068,-3.5414693355560303,-0.2879478931427002,-1.4728809595108032,0.04368605837225914,2.0188722014427185,0.744700700044632,
1,2021-02-05 10:09:23.9260,00:21,60,0,2021-02-05 10:09:24.7990,1612537764.799213,-0.0029848709236830473,-0.005812349263578653,0.0029523803386837244,0.013824462890625,-0.90875244140625,-0.42340087890625,-32.548828125,18.800704956054688,66.56585693359375,2021-02-05 10:09:25.4620,1612537765.461597,4.3653035163879395,-0.010122094303369522,0.1585557758808136,0.01356523111462593,1.7286807894706726,0.25663354992866516,
1,2021-02-05 10:09:23.9260,00:21,60,0,2021-02-05 10:09:24.8150,1612537764.8152819,-0.0017680726014077663,-0.00296329939737916,0.001957956003025174,0.013458251953125,-0.90887451171875,-0.4225006103515625,-32.69618225097656,19.280441284179688,66.00064086914062,2021-02-05 10:09:25.4620,1612537765.4617472,9.468707084655762,-0.3583941161632538,0.42424166202545166,0.23149121552705765,1.239148199558258,0.104916051030159,
1,2021-02-05 10:09:23.9260,00:21,60,0,2021-02-05 10:09:24.8320,1612537764.832024,-0.003609115956351161,-0.004801679402589798,0.0005052016349509358,0.0139617919921875,-0.909454345703125,-0.4214324951171875,-32.6107177734375,18.963623046875,66.02755737304688,2021-02-05 10:09:25.4620,1612537765.461839,12.837661743164062,-0.8711689710617065,1.045319676399231,0.28623970597982407,1.2549253702163696,0.08080783486366272,
1,2021-02-05 10:09:23.9260,00:21,60,0,2021-02-05 10:09:24.8490,1612537764.849227,-0.00141041015740484,-0.0021936458069831133,0.0036812876351177692,0.0133514404296875,-0.90972900390625,-0.4206085205078125,-32.59942626953125,19.149734497070312,65.7796630859375,2021-02-05 10:09:25.4630,1612537765.462635,9.637975692749023,-1.317816972732544,2.5012662410736084,0.2472228640690446,0.3755616545677185,-0.22932609915733337,
1,2021-02-05 10:09:23.9260,00:21,60,0,2021-02-05 10:09:24.8660,1612537764.865924,-0.00036485306918621063,-0.004427505191415548,0.0016495619202032685,0.013580322265625,-0.9099884033203125,-0.421905517578125,-32.59942626953125,19.149734497070312,65.7796630859375,2021-02-05 10:09:25.4630,1612537765.46274,5.653621673583984,-0.9711489677429199,3.026209592819214,0.07377605140209198,0.04086059331893921,-0.47584640979766846,
1,2021-02-05 10:09:23.9260,00:21,60,0,2021-02-05 10:09:24.8820,1612537764.882008,-0.0025952504947781563,-0.004493818152695894,0.0025595640763640404,0.014129638671875,-0.9105377197265625,-0.42181396484375,-32.61509704589844,19.030670166015625,65.92695617675781,2021-02-05 10:09:25.4630,1612537765.462833,-1.977794885635376,-1.7173413038253784,2.559791088104248,0.41674773395061493,-0.8787561655044556,-0.7851266860961914,
1,2021-02-05 10:09:23.9260,00:21,60,0,2021-02-05 10:09:24.8990,1612537764.898756,-0.0027254789602011442,-0.0031944618094712496,0.0010612696642056108,0.014617919921875,-0.909271240234375,-0.4212646484375,-32.36189270019531,18.921829223632812,66.47264099121094,2021-02-05 10:09:25.4630,1612537765.4629211,-7.36331033706665,-2.1130831241607666,1.6675503253936768,0.48228421807289124,-0.34533971548080444,-0.5719007849693298,
1,2021-02-05 10:09:23.9260,00:21,60,0,2021-02-05 10:09:24.9150,1612537764.91545,-0.0021457087714225054,-0.005701827816665173,0.0007896272582001984,0.013336181640625,-0.9089508056640625,-0.422515869140625,-32.60517883300781,19.116806030273438,66.3956298828125,2021-02-05 10:09:25.4630,1612537765.463008,-10.713485717773438,-2.7755889892578125,0.9509814977645874,0.41323820501565933,0.21918898820877075,0.033948540687561035,
1,2021-02-05 10:09:23.9260,00:21,60,0,2021-02-05 10:09:24.9320,1612537764.932322,-0.001023452845402062,-0.005550027824938297,0.005578789860010147,0.0135345458984375,-0.9097900390625,-0.422088623046875,-32.591552734375,19.052688598632812,65.89663696289062,2021-02-05 10:09:25.4630,1612537765.463093,-11.266679763793945,-2.971555471420288,0.413346529006958,0.25479093194007874,0.5696830153465271,0.9509852081537247,
1,2021-02-05 10:09:23.9260,00:21,60,0,2021-02-05 10:09:24.9490,1612537764.9489632,-0.0019768644124269485,-0.0039145806804299355,0.0005478122038766742,0.0126953125,-0.9099578857421875,-0.4224853515625,-32.62255859375,19.034332275390625,66.03309631347656,2021-02-05 10:09:25.5230,1612537765.5227652,-8.583368301391602,-3.3278965950012207,-0.13410744071006775,0.15121424198150635,1.149242639541626,1.3284410387277603,
1,2021-02-05 10:09:23.9260,00:21,60,0,2021-02-05 10:09:24.9660,1612537764.965636,-0.004795287735760212,-0.0018996327416971326,0.001892175991088152,0.0142669677734375,-0.9094085693359375,-0.423248291015625,-32.62255859375,19.034332275390625,66.03309631347656,2021-02-05 10:09:25.5230,1612537765.522952,-5.3682122230529785,-3.645533323287964,0.42437198758125305,0.1382136195898056,1.5112119317054749,1.1622721254825592,
1,2021-02-05 10:09:23.9260,00:21,60,0,2021-02-05 10:09:24.9820,1612537764.982294,-0.001330249011516571,-0.005770537536591291,0.0023363912478089333,0.0133209228515625,-0.9084014892578125,-0.422088623046875,-32.50575256347656,19.028289794921875,66.52047729492188,2021-02-05 10:09:25.6030,1612537765.602942,0.05441930517554283,-3.319711685180664,0.43188410997390747,-0.02334676682949066,1.8706477284431458,0.8377014398574829,
1,2021-02-05 10:09:23.9260,00:21,60,0,2021-02-05 10:09:24.9990,1612537764.998805,-0.0007534082396887243,-0.004571049474179745,0.0036448021419346333,0.01300048828125,-0.90924072265625,-0.422393798828125,-32.622467041015625,18.889602661132812,65.58161926269531,2021-02-05 10:09:25.6030,1612537765.6031442,8.062460899353027,-1.3331156969070435,0.9385035037994385,-0.12794587016105652,1.7915919423103333,1.0484261810779572,
1,2021-02-05 10:09:23.9260,00:21,60,0,2021-02-05 10:09:25.0150,1612537765.0154839,-0.0028304075822234154,-0.005065598525106907,0.0009973538108170033,0.0132904052734375,-0.908935546875,-0.4211578369140625,-32.7353515625,18.940017700195312,65.88858032226562,2021-02-05 10:09:25.7620,1612537765.762329,16.747644424438477,-0.5605635643005371,2.424307107925415,-0.04766950011253357,1.5980647802352905,1.2886928133666515,
1,2021-02-05 10:09:23.9260,00:21,60,0,2021-02-05 10:09:25.0320,1612537765.0320458,-0.002103364560753107,-0.0041675809770822525,-0.0010724549647420645,0.013397216796875,-0.909423828125,-0.4222564697265625,-32.54364013671875,18.699905395507812,66.24009704589844,2021-02-05 10:09:25.7630,1612537765.762598,30.06482696533203,3.3551454544067383,5.681410789489746,-0.2621322572231293,1.1861392855644226,0.45918112993240356,
1,2021-02-05 10:09:23.9260,00:21,60,0,2021-02-05 10:09:25.0490,1612537765.049138,-0.0007936219917610288,-0.005108209326863289,0.00364693277515471,0.012420654296875,-0.9100494384765625,-0.4222869873046875,-32.60874938964844,18.799713134765625,66.89250183105469,2021-02-05 10:09:25.7630,1612537765.762692,31.162294387817383,-0.028099894523620605,4.590065956115723,0.2842387557029724,-1.3204340636730194,2.23713618516922,
1,2021-02-05 10:09:23.9260,00:21,60,0,2021-02-05 10:09:25.0660,1612537765.065655,-0.00177925790194422,-0.0038192393258213997,0.000336090917699039,0.013275146484375,-0.9101715087890625,-0.4223480224609375,-32.60874938964844,18.799713134765625,66.89250183105469,2021-02-05 10:09:25.7710,1612537765.770788,-9.940730094909668,2.8223698139190674,-1.13978910446167,0.1499306559562683,-2.6123642027378082,-0.3707742691040039,
1,2021-02-05 10:09:23.9260,00:21,60,0,2021-02-05 10:09:25.0820,1612537765.082117,-0.0024285365361720324,-0.0036535905674099922,0.0010727213229984045,0.0136260986328125,-0.9094390869140625,-0.421173095703125,-32.70149230957031,18.968673706054688,65.94186401367188,2021-02-05 10:09:25.7710,1612537765.7709432,-15.463693618774414,2.3011515140533447,-1.3504666090011597,0.8135505318641663,1.0925904922187328,0.01914900541305542,
1,2021-02-05 10:09:23.9260,00:21,60,0,2021-02-05 10:09:25.0990,1612537765.099011,-0.00321816373616457,-0.005344431847333908,0.0014442323008552194,0.0140228271484375,-0.90826416015625,-0.422271728515625,-32.61981201171875,18.908843994140625,65.70904541015625,2021-02-05 10:09:25.7710,1612537765.771039,-14.676338195800781,-0.6371317505836487,-1.5410377979278564,0.785001277923584,0.054380953311920166,-0.4128885865211487,
1,2021-02-05 10:09:23.9260,00:21,60,0,2021-02-05 10:09:25.1160,1612537765.115628,-0.0014940333785489202,-0.002781938062980771,0.0018722022650763392,0.0131072998046875,-0.9088134765625,-0.422760009765625,-32.56886291503906,18.753570556640625,65.66288757324219,2021-02-05 10:09:25.7950,1612537765.795137,-15.567991256713867,0.20166105031967163,-2.1975278854370117,0.3046852946281433,0.6882601976394653,0.09567052125930786,
1,2021-02-05 10:09:23.9260,00:21,60,0,2021-02-05 10:09:25.1320,1612537765.132271,-0.002639192622154951,-0.0010479538468644023,0.002871153876185417,0.014007568359375,-0.909393310546875,-0.42181396484375,-32.65113830566406,19.108779907226562,65.37002563476562,2021-02-05 10:09:25.8230,1612537765.823036,-7.92669677734375,0.24751459062099457,-0.3933345675468445,0.3660714626312256,1.7051510214805603,0.3821227252483368,
1,2021-02-05 10:09:23.9260,00:21,60,0,2021-02-05 10:09:25.1490,1612537765.148752,-0.002639192622154951,-0.0010479538468644023,0.002871153876185417,0.014007568359375,-0.909393310546875,-0.42181396484375,-32.660675048828125,19.011642456054688,66.14372253417969,2021-02-05 10:09:25.8560,1612537765.855668,1.1695990562438965,0.6571004390716553,0.36447012424468994,0.4605233669281006,2.1689417958259583,0.16645465791225433,
1,2021-02-05 10:09:23.9260,00:21,60,0,2021-02-05 10:09:25.1660,1612537765.165561,-0.0019283948931843042,-0.005717540625482798,0.002030926523730159,0.0138092041015625,-0.9089813232421875,-0.42181396484375,-32.66142272949219,19.052978515625,66.17156982421875,2021-02-05 10:09:25.9480,1612537765.948213,7.985264301300049,0.7728856801986694,1.6733959913253784,0.432157039642334,1.7413600087165833,0.057827457785606384,
1,2021-02-05 10:09:23.9260,00:21,60,0,2021-02-05 10:09:25.1820,1612537765.182406,-0.0024780714884400368,-0.004819522611796856,0.0020130835473537445,0.0136871337890625,-0.9093780517578125,-0.4218597412109375,-32.66142272949219,19.052978515625,66.17156982421875,2021-02-05 10:09:25.9480,1612537765.948403,20.873279571533203,3.128178834915161,3.135936975479126,0.15636950731277466,1.5767186880111694,0.33357030153274536,
1,2021-02-05 10:09:23.9260,00:21,60,0,2021-02-05 10:09:25.1990,1612537765.199168,-0.0031380027066916227,-0.005426190793514252,-0.0018887137994170189,0.0138092041015625,-0.90997314453125,-0.4208831787109375,-32.73307800292969,19.174301147460938,65.46554565429688,2021-02-05 10:09:25.9480,1612537765.948498,15.123902320861816,-1.3449183702468872,0.9840976595878601,1.0101442337036133,-0.732804074883461,0.07905459403991699,
1,2021-02-05 10:09:23.9260,00:21,60,0,2021-02-05 10:09:25.2160,1612537765.2159061,-0.002254632068797946,-0.006931409239768982,0.0006697850185446441,0.0138092041015625,-0.909423828125,-0.421478271484375,-32.54103088378906,19.231735229492188,65.34603881835938,2021-02-05 10:09:25.9710,1612537765.971422,-9.109143257141113,-0.29958075284957886,-1.0681344270706177,0.38839423656463623,-3.115479201078415,-0.5163127779960632,
1,2021-02-05 10:09:23.9260,00:21,60,0,2021-02-05 10:09:25.2330,1612537765.23251,-0.0006332996999844909,-0.005293831694871187,0.002020007697865367,0.0127716064453125,-0.9089202880859375,-0.4225921630859375,-32.58958435058594,18.94281005859375,65.21812438964844,2021-02-05 10:09:26.0010,1612537766.001289,-11.614616394042969,0.4884036183357239,-2.467175006866455,0.7403689026832581,0.3035566210746765,-0.5557265877723694,
1,2021-02-05 10:09:23.9260,00:21,60,0,2021-02-05 10:09:25.2490,1612537765.2490082,-0.0012428972404450178,-0.0026935210917145014,0.004567055031657219,0.013153076171875,-0.9092864990234375,-0.4220733642578125,-32.68402099609375,19.198898315429688,65.20658874511719,2021-02-05 10:09:26.0390,1612537766.0389419,-13.282729148864746,-0.8717665076255798,-2.017488479614258,0.6833928823471069,0.41999536752700806,0.17150652408599854,
1,2021-02-05 10:09:23.9260,00:21,60,0,2021-02-05 10:09:25.2660,1612537765.265624,-0.0016823188634589314,-0.0023393207229673862,0.00013555490295402706,0.0131683349609375,-0.9099273681640625,-0.421844482421875,-32.677520751953125,19.13409423828125,65.48873901367188,2021-02-05 10:09:26.0610,1612537766.0608912,-7.710590839385986,-0.3241614103317261,-1.2111210823059082,0.4887824058532715,1.8483394384384155,0.3456234931945801,
1,2021-02-05 10:09:23.9260,00:21,60,0,2021-02-05 10:09:25.2820,1612537765.282147,-0.0020788635592907667,-0.0037388119380921125,0.0014253237750381231,0.0138702392578125,-0.910736083984375,-0.4216766357421875,-32.677520751953125,19.13409423828125,65.48873901367188,2021-02-05 10:09:26.1090,1612537766.108817,2.0705907344818115,0.5324090719223022,-0.40057069063186646,0.4076054096221924,2.2724721431732178,0.3263203203678131,
1,2021-02-05 10:09:23.9260,00:21,60,0,2021-02-05 10:09:25.2990,1612537765.298511,-0.003677559085190296,-0.00407383730635047,0.0026703516487032175,0.013458251953125,-0.910186767578125,-0.4222564697265625,-32.653076171875,19.118820190429688,65.74314880371094,2021-02-05 10:09:26.1270,1612537766.127098,13.48901653289795,1.5808978080749512,1.9473389387130737,0.48067963123321533,1.629116177558899,0.06490755081176758,
1,2021-02-05 10:09:23.9260,00:21,60,0,2021-02-05 10:09:25.3160,1612537765.315721,-0.00239151855930686,-0.0029875340405851603,0.002579005202278495,0.0128173828125,-0.90966796875,-0.421966552734375,-32.65864562988281,19.28399658203125,66.03285217285156,2021-02-05 10:09:26.1500,1612537766.149929,25.652029037475586,1.5845718383789062,4.210662841796875,0.377102255821228,0.8449685275554657,0.9614390730857849,
1,2021-02-05 10:09:23.9260,00:21,60,0,2021-02-05 10:09:25.3320,1612537765.331857,-0.00019041601626668125,-0.004319913685321808,0.0031792817171663046,0.0124664306640625,-0.909576416015625,-0.422576904296875,-32.797454833984375,18.956390380859375,66.13624572753906,2021-02-05 10:09:26.1830,1612537766.183017,13.392142295837402,-3.3907079696655273,0.7755087018013,1.2951319217681885,-1.8115075081586838,-0.09752029180526733,
1,2021-02-05 10:09:23.9260,00:21,60,0,2021-02-05 10:09:25.3490,1612537765.3490229,-0.0021971079986542463,-0.003026149934157729,0.001591505017131567,0.0137481689453125,-0.9087677001953125,-0.4221954345703125,-32.694366455078125,19.001312255859375,66.05482482910156,2021-02-05 10:09:26.2100,1612537766.209934,-6.476461410522461,-0.07476158440113068,-0.9835313558578491,0.005093038082122803,-2.2169486731290817,-0.9715741276741028,
1,2021-02-05 10:09:23.9260,00:21,60,0,2021-02-05 10:09:25.3650,1612537765.3654919,-0.0023664848413318396,-0.006870422977954149,0.003343598684296012,0.012908935546875,-0.908905029296875,-0.4224090576171875,-32.52043151855469,19.035003662109375,66.16305541992188,2021-02-05 10:09:26.2500,1612537766.250321,-8.20616340637207,-0.3884449899196625,-0.9180729985237122,1.3417779207229614,0.632965037599206,-1.0645918250083923,
1,2021-02-05 10:09:23.9260,00:21,60,0,2021-02-05 10:09:25.3820,1612537765.382287,-0.0015656723408028483,-0.004023769870400429,0.0023726101499050856,0.0129241943359375,-0.9087982177734375,-0.4222869873046875,-32.52043151855469,19.035003662109375,66.16305541992188,2021-02-05 10:09:26.2960,1612537766.296152,-13.519185066223145,-1.0573174953460693,-0.2610239088535309,0.5533106923103333,-0.3913896083831787,-0.3304458260536194,
1,2021-02-05 10:09:23.9260,00:21,60,0,2021-02-05 10:09:25.3990,1612537765.3990998,-0.002225070958957076,-0.003570500062778592,0.0017635452095419168,0.012847900390625,-0.9102783203125,-0.422882080078125,-32.66633605957031,19.039047241210938,66.40911865234375,2021-02-05 10:09:26.3000,1612537766.2995949,-10.980810165405273,-0.07967942208051682,-1.0085563659667969,0.42774611711502075,0.1979946494102478,-0.03750854730606079,
1,2021-02-05 10:09:23.9260,00:21,60,0,2021-02-05 10:09:25.4180,1612537765.417995,-0.0015595471486449242,-0.002624278888106346,0.0016532903537154198,0.0130615234375,-0.90948486328125,-0.42156982421875,-32.53923034667969,19.18133544921875,65.75956726074219,2021-02-05 10:09:26.3300,1612537766.329607,-5.176822662353516,-0.7650105953216553,-1.3137038946151733,0.4255947470664978,0.817195475101471,0.1655544638633728,
1,2021-02-05 10:09:23.9260,00:21,60,0,2021-02-05 10:09:25.4320,1612537765.432266,-0.0011741877533495426,-0.005275722127407789,0.0006410228670574725,0.0127410888671875,-0.9095001220703125,-0.422332763671875,-32.691650390625,19.300537109375,65.67514038085938,2021-02-05 10:09:26.3600,1612537766.3595161,-1.7759733200073242,-0.4849809408187866,-0.5469071865081787,0.40987837314605713,1.3873549699783325,0.15606307983398438,
1,2021-02-05 10:09:23.9260,00:21,60,0,2021-02-05 10:09:25.4490,1612537765.44882,-0.0020101540721952915,-0.004279966000467539,0.0035800873301923275,0.013427734375,-0.908905029296875,-0.4218292236328125,-32.742401123046875,19.3001708984375,65.80442810058594,2021-02-05 10:09:26.3890,1612537766.389183,6.555739879608154,0.6125561594963074,0.9387669563293457,0.4936339259147644,1.8513140678405762,0.045605093240737915,
1,2021-02-05 10:09:23.9260,00:21,60,0,2021-02-05 10:09:25.4660,1612537765.465795,-0.0014897723449394107,-0.004698348697274923,0.0021499700378626585,0.01312255859375,-0.9097137451171875,-0.4229888916015625,-32.91841125488281,19.319610595703125,65.46037292480469,2021-02-05 10:09:26.4190,1612537766.4193401,6.519226551055908,-1.8982384204864502,0.8573784232139587,0.8248409628868103,0.3951228857040405,-0.867434024810791,
1,2021-02-05 10:09:23.9260,00:21,60,0,2021-02-05 10:09:25.4820,1612537765.482271,-0.0012511530658230186,-0.0031286815647035837,0.0024224112275987864,0.013671875,-0.909912109375,-0.42108154296875,-32.91841125488281,19.319610595703125,65.46037292480469,2021-02-05 10:09:26.4490,1612537766.449286,-14.081891059875488,-0.5984135270118713,-0.4580719470977783,0.3431670069694519,-2.2964213490486145,-1.1709776520729065,
1,2021-02-05 10:09:23.9260,00:21,60,0,2021-02-05 10:09:25.4990,1612537765.499304,-0.003506850451231003,-0.004583566449582577,0.001928128651343286,0.0134429931640625,-0.9094085693359375,-0.4230804443359375,-32.75062561035156,19.342315673828125,65.78312683105469,2021-02-05 10:09:26.4790,1612537766.479449,-13.30633544921875,-0.9982836842536926,-2.8127403259277344,1.0591552555561066,1.0959572196006775,-0.4880113750696182,
1,2021-02-05 10:09:23.9260,00:21,60,0,2021-02-05 10:09:25.5160,1612537765.515568,-0.0011124024167656898,-0.0017725999932736158,0.002805906580761075,0.013671875,-0.910186767578125,-0.4221343994140625,-32.69850158691406,19.332855224609375,65.17845153808594,2021-02-05 10:09:26.5090,1612537766.50886,-11.84700870513916,-1.1409167051315308,-1.302044153213501,0.3101779818534851,0.7966710329055786,1.1843956336379051,
1,2021-02-05 10:09:23.9260,00:21,60,0,2021-02-05 10:09:25.5320,1612537765.532432,-0.0022921827621757984,-0.004548945464193821,0.0015398397808894515,0.0125732421875,-0.90936279296875,-0.4221649169921875,-32.81336975097656,19.326934814453125,64.91865539550781,2021-02-05 10:09:26.5390,1612537766.538857,-2.0322036743164062,0.09369444847106934,-0.9056524038314819,0.12269324064254761,1.7434938549995422,0.8855350017547607,
1,2021-02-05 10:09:23.9260,00:21,60,0,2021-02-05 10:09:25.5490,1612537765.5489202,-0.0024405207950621843,-0.004208859521895647,-0.000261788722127676,0.0136260986328125,-0.9094696044921875,-0.422271728515625,-32.63575744628906,19.222366333007812,65.7093505859375,2021-02-05 10:09:26.5690,1612537766.568668,2.8983302116394043,0.174928680062294,-0.05756540969014168,0.1969883143901825,1.0044190287590027,0.5439061522483826,
1,2021-02-05 10:09:23.9260,00:21,60,0,2021-02-05 10:09:25.5650,1612537765.565386,-0.0014671353856101632,-0.004887699615210295,-0.000660463934764266,0.0125732421875,-0.90936279296875,-0.4218597412109375,-32.88645935058594,19.465805053710938,65.43736267089844,2021-02-05 10:09:26.5990,1612537766.5985808,9.295997619628906,0.5625582337379456,0.7097235321998596,0.17937946319580078,1.48973947763443,0.7194895520806313,
1,2021-02-05 10:09:23.9260,00:21,60,0,2021-02-05 10:09:25.5830,1612537765.582566,-0.003569967346265912,-0.004336957819759846,0.0031547807157039642,0.0139312744140625,-0.91009521484375,-0.4231414794921875,-32.75468444824219,19.344390869140625,65.57925415039062,2021-02-05 10:09:26.6290,1612537766.628705,18.68279457092285,1.0973427295684814,2.2568657398223877,0.2459227740764618,1.1272979974746704,0.9042763113975525,
1,2021-02-05 10:09:23.9260,00:21,60,0,2021-02-05 10:09:25.5990,1612537765.599288,-0.0015654060989618301,-0.0051955608651041985,0.001511610229499638,0.013763427734375,-0.909149169921875,-0.422119140625,-32.75468444824219,19.344390869140625,65.57925415039062,2021-02-05 10:09:26.6590,1612537766.659107,21.612810134887695,1.0736606121063232,3.459906578063965,0.2732810378074646,-0.3051796555519104,0.715848445892334,
1,2021-02-05 10:09:23.9260,00:21,60,0,2021-02-05 10:09:25.6160,1612537765.616352,-0.00014807176194153726,-0.0022485069930553436,0.0018940401496365666,0.0140533447265625,-0.9101409912109375,-0.422821044921875,-32.78941345214844,19.210159301757812,65.48872375488281,2021-02-05 10:09:26.6890,1612537766.689002,8.01392936706543,-0.34759923815727234,0.5655427575111389,0.846431314945221,-1.824158564209938,-1.4164899587631226,
1,2021-02-05 10:09:23.9260,00:21,60,0,2021-02-05 10:09:25.6330,1612537765.633107,-0.00276089902035892,-0.003370496677234769,0.003440005239099264,0.012451171875,-0.908660888671875,-0.4212646484375,-32.72508239746094,19.516220092773438,65.02685546875,2021-02-05 10:09:26.7180,1612537766.7184,-6.299752235412598,0.3981688916683197,-1.193422794342041,0.6198078393936157,-0.6522684842348099,-1.5148786306381226,
1,2021-02-05 10:09:23.9260,00:21,60,0,2021-02-05 10:09:25.6500,1612537765.649992,-0.0025390577502548695,-0.0049675945192575455,0.0026346652302891016,0.012542724609375,-0.90863037109375,-0.421234130859375,-32.593719482421875,19.100982666015625,65.2127685546875,2021-02-05 10:09:26.7500,1612537766.750097,-15.390015602111816,0.10424669086933136,-1.3163639307022095,0.810725748538971,-0.0630524754524231,-0.34663593769073486,
1,2021-02-05 10:09:23.9260,00:21,60,0,2021-02-05 10:09:25.6680,1612537765.668178,-0.0015867113834246993,-0.002010420197620988,0.0032232238445430994,0.013275146484375,-0.9099273681640625,-0.4215545654296875,-32.586639404296875,19.386367797851562,65.09475708007812,2021-02-05 10:09:26.7780,1612537766.777954,-16.44652557373047,-1.3886892795562744,-0.6154667735099792,0.677715003490448,0.02903151512145996,0.14004072546958923,
1,2021-02-05 10:09:23.9260,00:21,60,0,2021-02-05 10:09:25.6850,1612537765.684653,-0.002231995342299342,-0.003316967049613595,0.0025569009594619274,0.0130462646484375,-0.9090728759765625,-0.4233551025390625,-32.618743896484375,19.29364013671875,64.9847412109375,2021-02-05 10:09:26.8080,1612537766.8078918,-3.389988899230957,1.2455193996429443,-0.7055866718292236,0.17519712448120117,1.1784747242927551,0.5517662316560745,
1,2021-02-05 10:09:23.9260,00:21,60,0,2021-02-05 10:09:25.7010,1612537765.7014651,-0.0008623315370641649,-0.0049620019271969795,0.0019076223252341151,0.01318359375,-0.9095916748046875,-0.4224700927734375,-32.618743896484375,19.29364013671875,64.9847412109375,2021-02-05 10:09:26.8380,1612537766.837768,6.557336807250977,1.1770919561386108,-0.8500223159790039,0.5072436630725861,2.749336302280426,0.80063696205616,
1,2021-02-05 10:09:23.9260,00:21,60,0,2021-02-05 10:09:25.7170,1612537765.717462,-0.0011925635626539588,-0.002805906580761075,-3.808320252574049e-05,0.013916015625,-0.909576416015625,-0.421630859375,-32.73808288574219,19.334579467773438,65.46968078613281,2021-02-05 10:09:26.8680,1612537766.8675451,17.104764938354492,0.13512293994426727,2.0613532066345215,0.3581039309501648,0.6161894798278809,0.42890480160713196,
1,2021-02-05 10:09:23.9260,00:21,60,0,2021-02-05 10:09:25.7340,1612537765.7336469,-0.0010612696642056108,-0.001597363967448473,0.0023009711876511574,0.0126953125,-0.9089508056640625,-0.421661376953125,-32.66557312011719,18.958908081054688,65.69650268554688,2021-02-05 10:09:26.9150,1612537766.915358,3.4544336795806885,-0.23905238509178162,0.04752552509307861,0.4524640440940857,-1.3772164285182953,-1.4632897973060608,
1,2021-02-05 10:09:23.9260,00:21,60,0,2021-02-05 10:09:25.7510,1612537765.75147,-0.0015755260828882456,-0.0028099012561142445,0.001689509372226894,0.0127410888671875,-0.908416748046875,-0.4227447509765625,-32.67701721191406,19.121444702148438,65.12834167480469,2021-02-05 10:09:26.9270,1612537766.9272761,-16.03384780883789,0.35838401317596436,-0.586889922618866,0.5604810118675232,-1.763784408569336,-0.9632606506347656,
1,2021-02-05 10:09:23.9260,00:21,60,0,2021-02-05 10:09:25.7680,1612537765.768116,0.0003150519623886794,-0.0029201561119407415,0.0032117723021656275,0.01416015625,-0.9091033935546875,-0.4219818115234375,-32.80377197265625,19.288360595703125,64.93179321289062,2021-02-05 10:09:26.9570,1612537766.9572968,-15.414291381835938,-0.9279656410217285,-1.7171688079833984,0.8579210340976715,0.7798997759819031,0.6198050677776337,
1,2021-02-05 10:09:23.9260,00:21,60,0,2021-02-05 10:09:25.7850,1612537765.7847362,-0.001064731739461422,-0.003762513864785433,0.0018405106384307146,0.0132293701171875,-0.9091339111328125,-0.4217529296875,-32.620941162109375,19.156890869140625,65.23039245605469,2021-02-05 10:09:26.9870,1612537766.9871569,-8.76683521270752,-0.6446700096130371,-0.9367339611053467,0.33477354049682617,1.5047982335090637,0.9408006817102432,
1,2021-02-05 10:09:23.9260,00:21,60,0,2021-02-05 10:09:25.8010,1612537765.8014,0.001323857344686985,-0.003976366017013788,0.0016080166678875685,0.013916015625,-0.9092864990234375,-0.4210205078125,-32.65380859375,19.233673095703125,65.00840759277344,2021-02-05 10:09:27.0170,1612537767.01706,0.7118450999259949,0.031038392335176468,0.6159205436706543,0.2251390516757965,1.9663612842559814,0.610172227025032,
1,2021-02-05 10:09:23.9260,00:21,60,0,2021-02-05 10:09:25.8180,1612537765.818001,0.000988032785244286,-0.0032567796297371387,0.0028306739404797554,0.0133514404296875,-0.9098663330078125,-0.42230224609375,-32.65380859375,19.233673095703125,65.00840759277344,2021-02-05 10:09:27.0470,1612537767.047062,7.774648666381836,0.3420869708061218,1.938259243965149,0.4070691168308258,1.2941503524780273,0.4816022887825966,
1,2021-02-05 10:09:23.9260,00:21,60,0,2021-02-05 10:09:25.8350,1612537765.834858,-0.004521781112998724,-0.0031883365008980036,0.002788329729810357,0.013671875,-0.909881591796875,-0.42205810546875,-32.61329650878906,19.203765869140625,65.16429138183594,2021-02-05 10:09:27.0770,1612537767.076946,17.379589080810547,0.7270810604095459,2.0114028453826904,0.41068506240844727,1.2018660306930542,0.4966813027858734,
1,2021-02-05 10:09:23.9260,00:21,60,0,2021-02-05 10:09:25.8510,1612537765.851324,-0.00023568976030219346,-0.0038538603112101555,0.0027473168447613716,0.0131683349609375,-0.9102630615234375,-0.4213104248046875,-32.55430603027344,19.290679931640625,65.20643615722656,2021-02-05 10:09:27.1070,1612537767.107194,20.421113967895508,1.681241512298584,2.19193434715271,0.46329665184020996,0.3889261484146118,0.20760715007781982,
1,2021-02-05 10:09:23.9260,00:21,60,0,2021-02-05 10:09:25.8680,1612537765.8679938,-0.0010956244077533484,-0.00439048744738102,0.0016104135429486632,0.0136566162109375,-0.909881591796875,-0.4225616455078125,-32.66697692871094,19.266326904296875,65.10957336425781,2021-02-05 10:09:27.1370,1612537767.1365871,7.547522068023682,-0.25302040576934814,0.48929575085639954,1.0647671222686768,-0.8770159035921097,-1.3208032846450806,
1,2021-02-05 10:09:23.9260,00:21,60,0,2021-02-05 10:09:25.8840,1612537765.884484,0.0,-0.0011105381418019533,0.001418665866367519,0.0146636962890625,-0.9101104736328125,-0.422027587890625,-32.72991943359375,19.340621948242188,65.35165405273438,2021-02-05 10:09:27.1670,1612537767.166642,-11.174783706665039,-0.08045560121536255,-1.162427306175232,0.5030454397201538,-1.6066462993621826,-0.6864956617355347,
1,2021-02-05 10:09:23.9260,00:21,60,0,2021-02-05 10:09:25.9010,1612537765.901447,-0.0010964233661070466,-0.002980343531817198,0.0006042712484486401,0.0133209228515625,-0.9091949462890625,-0.4212799072265625,-32.70103454589844,19.302078247070312,65.21711730957031,2021-02-05 10:09:27.1960,1612537767.196337,-13.319954872131348,-0.8808132410049438,-2.3284554481506348,0.9538052678108215,0.8127386569976807,0.043284833431243896,
1,2021-02-05 10:09:23.9260,00:21,60,0,2021-02-05 10:09:25.9180,1612537765.917835,-0.0003731088654603809,-0.0021489046048372984,0.0019747340120375156,0.01385498046875,-0.9101409912109375,-0.4227294921875,-32.70103454589844,19.302078247070312,65.21711730957031,2021-02-05 10:09:27.2260,1612537767.226316,-11.864906311035156,-1.3235368728637695,-1.3309574127197266,0.46578413248062134,0.8305891752243042,-0.019949883222579956,
1,2021-02-05 10:09:23.9260,00:21,60,0,2021-02-05 10:09:25.9350,1612537765.934616,-0.0012751214671880007,-0.0020881847012788057,0.0032988577149808407,0.013336181640625,-0.90997314453125,-0.4219207763671875,-32.614227294921875,19.183273315429688,65.19027709960938,2021-02-05 10:09:27.2560,1612537767.256088,-2.2000536918640137,0.3219338357448578,-2.076157569885254,0.630304753780365,2.22797292470932,-0.1108788251876831,
1,2021-02-05 10:09:23.9260,00:21,60,0,2021-02-05 10:09:25.9510,1612537765.951287,0.0013076120521873236,-0.0035420041531324387,0.00019867181254085153,0.013336181640625,-0.9097747802734375,-0.4223480224609375,-32.67512512207031,19.3173828125,65.16964721679688,2021-02-05 10:09:27.2860,1612537767.285863,1.6910018920898438,1.163941740989685,-1.5607974529266357,0.3882398009300232,1.389517366886139,0.20127025246620178,
1,2021-02-05 10:09:23.9260,00:21,60,0,2021-02-05 10:09:25.9670,1612537765.9667869,-0.0023276028223335743,-0.0041617220267653465,0.0006609965930692852,0.0130767822265625,-0.9096832275390625,-0.4222259521484375,-32.726806640625,19.38385009765625,65.11631774902344,2021-02-05 10:09:27.3160,1612537767.315624,3.299738883972168,0.2548108994960785,-1.0789952278137207,0.4231218099594116,1.2374332547187805,0.0993727445602417,
1,2021-02-05 10:09:23.9260,00:21,60,0,2021-02-05 10:09:25.9820,1612537765.98208,-0.001916410750709474,-0.004839496221393347,0.004042944870889187,0.012969970703125,-0.9098358154296875,-0.4222869873046875,-32.68133544921875,19.291046142578125,65.4862060546875,2021-02-05 10:09:27.3450,1612537767.345464,7.321923732757568,-0.04767506197094917,0.3152846395969391,0.14541196823120117,0.6173929572105408,-0.04843759536743164,
1,2021-02-05 10:09:23.9260,00:21,60,0,2021-02-05 10:09:26.0000,1612537765.9995,-0.0006657902849838138,0.0002665824140422046,0.0012266519479453564,0.0135650634765625,-0.910247802734375,-0.4215240478515625,-32.58628845214844,19.169540405273438,65.64651489257812,2021-02-05 10:09:27.3750,1612537767.3752918,1.9671770334243774,-0.534217894077301,0.34276115894317627,0.20000791549682617,-0.40793585777282715,-0.6385394930839539,
1,2021-02-05 10:09:23.9260,00:21,60,0,2021-02-05 10:09:26.0160,1612537766.015726,-0.0021582257468253374,-0.002323341788724065,0.002584597794339061,0.013397216796875,-0.910186767578125,-0.421966552734375,-32.58628845214844,19.169540405273438,65.64651489257812,2021-02-05 10:09:27.4050,1612537767.405473,-5.252851486206055,-0.7713369727134705,-0.06625210493803024,0.31806522607803345,-0.6605300307273865,-0.5966086387634277,
1,2021-02-05 10:09:23.9260,00:21,60,0,2021-02-05 10:09:26.0330,1612537766.032979,0.00039867521263659,-0.002284992253407836,0.003311907174065709,0.013214111328125,-0.9098968505859375,-0.4218597412109375,-32.67692565917969,19.410171508789062,65.18240356445312,2021-02-05 10:09:27.4350,1612537767.435086,-9.450472831726074,-0.4223485291004181,-0.49959641695022583,0.3236958384513855,-0.010781288146972656,-0.053016066551208496,
1,2021-02-05 10:09:23.9260,00:21,60,0,2021-02-05 10:09:26.0520,1612537766.0516071,-0.0007608651067130268,-0.007978564128279686,0.0011153318919241428,0.0132293701171875,-0.90972900390625,-0.422088623046875,-32.74488830566406,19.272201538085938,64.93141174316406,2021-02-05 10:09:27.4650,1612537767.464978,-10.399399757385254,-0.5845060348510742,-0.6181228160858154,0.41465362906455994,0.9750120639801025,0.6403555739670992,
1,2021-02-05 10:09:23.9260,00:21,60,0,2021-02-05 10:09:26.0680,1612537766.068203,-0.0019712718203663826,-0.003459446132183075,0.0004625910660251975,0.0137481689453125,-0.9092864990234375,-0.4223480224609375,-32.83595275878906,19.107650756835938,64.89002990722656,2021-02-05 10:09:27.4950,1612537767.494921,-5.1163649559021,-0.8178000450134277,0.15379290282726288,0.4666098654270172,1.6320099830627441,0.7022127360105515,
1,2021-02-05 10:09:23.9260,00:21,60,0,2021-02-05 10:09:26.0850,1612537766.084667,-0.00046072687837295234,-0.006256031803786755,0.0028519791085273027,0.01312255859375,-0.90985107421875,-0.4208984375,-33.06755065917969,19.429672241210938,64.70930480957031,2021-02-05 10:09:27.5250,1612537767.5248442,-0.16591981053352356,-0.6233298778533936,0.6803164482116699,0.35990506410598755,1.7181004285812378,0.45259377360343933,
1,2021-02-05 10:09:23.9260,00:21,60,0,2021-02-05 10:09:26.1010,1612537766.1014152,-0.0014447649009525776,-0.0034234935883432627,0.004686897154897451,0.0131683349609375,-0.90997314453125,-0.42218017578125,-32.69032287597656,19.026168823242188,65.04286193847656,2021-02-05 10:09:27.5550,1612537767.554793,5.0311384201049805,-0.560846209526062,1.4528793096542358,0.4385789632797241,1.6373355388641357,0.13087789714336395,
1,2021-02-05 10:09:23.9260,00:21,60,0,2021-02-05 10:09:26.1180,1612537766.1180391,-0.002552373567596078,-0.002862099092453718,0.0022596921771764755,0.01361083984375,-0.909454345703125,-0.42095947265625,-32.69032287597656,19.026168823242188,65.04286193847656,2021-02-05 10:09:27.5850,1612537767.584965,14.092738151550293,0.6528688073158264,2.459562301635742,0.37179064750671387,1.388495147228241,0.28471939638257027,
1,2021-02-05 10:09:23.9260,00:21,60,0,2021-02-05 10:09:26.1350,1612537766.1346068,-0.0033105756156146526,-0.00478410255163908,0.0029912625905126333,0.0138092041015625,-0.9094696044921875,-0.4212799072265625,-32.80841064453125,19.281967163085938,64.72227478027344,2021-02-05 10:09:27.6150,1612537767.614727,21.438615798950195,1.4769335985183716,2.634908676147461,0.6579838395118713,1.1146934628486633,0.5881599187850952,
1,2021-02-05 10:09:23.9260,00:21,60,0,2021-02-05 10:09:26.1510,1612537766.151159,-0.0023209447972476482,-0.0064773401245474815,0.0028336034156382084,0.0131683349609375,-0.90985107421875,-0.4220733642578125,-32.66011047363281,19.042098999023438,64.89918518066406,2021-02-05 10:09:27.6450,1612537767.644609,18.72294807434082,-0.6033716201782227,1.8629897832870483,0.8536620140075684,-0.37465138733386993,-0.06093078851699829,
1,2021-02-05 10:09:23.9260,00:21,60,0,2021-02-05 10:09:26.1680,1612537766.168377,0.00036272252327762544,-0.003364371368661523,0.0006372944335453212,0.0125274658203125,-0.9104461669921875,-0.422454833984375,-32.686737060546875,19.041519165039062,65.18748474121094,2021-02-05 10:09:27.6740,1612537767.674257,4.454697132110596,-0.16124016046524048,-0.013002002611756325,0.6080109477043152,-1.5297694392502308,-1.0717946290969849,
1,2021-02-05 10:09:23.9260,00:21,60,0,2021-02-05 10:09:26.1840,1612537766.184434,-0.0010290454374626279,0.0007241134881041944,0.0029880667570978403,0.01336669921875,-0.90814208984375,-0.4220733642578125,-32.78645324707031,19.075897216796875,64.75833129882812,2021-02-05 10:09:27.7050,1612537767.705209,1.1190382242202759,-0.20222614705562592,0.2322978377342224,0.6061188578605652,-0.2777700126171112,-0.9283009767532349,
1,2021-02-05 10:09:23.9260,00:21,60,0,2021-02-05 10:09:26.2010,1612537766.201318,-0.0014117417158558965,-0.0033095101825892925,0.001966478070244193,0.01361083984375,-0.9093017578125,-0.4226837158203125,-32.72602844238281,19.41070556640625,64.73817443847656,2021-02-05 10:09:27.7340,1612537767.73428,-8.006815910339355,-1.4206808805465698,-0.4838264584541321,0.7159214615821838,-0.15983562171459198,-0.390306293964386,
1,2021-02-05 10:09:23.9260,00:21,60,0,2021-02-05 10:09:26.2180,1612537766.217901,-0.0010410296963527799,-0.0027260116767138243,0.0010522148804739118,0.01409912109375,-0.9108123779296875,-0.42144775390625,-32.66606140136719,19.040176391601562,64.74079895019531,2021-02-05 10:09:27.7640,1612537767.763928,-11.416089057922363,-1.807854175567627,-0.9503791928291321,0.45333331823349,0.21963264048099518,-0.2909717559814453,
1,2021-02-05 10:09:23.9260,00:21,60,0,2021-02-05 10:09:26.2350,1612537766.234614,-0.002419215627014637,0.0004040015337523073,0.001041295938193798,0.01348876953125,-0.909881591796875,-0.421356201171875,-32.66606140136719,19.040176391601562,64.74079895019531,2021-02-05 10:09:27.7940,1612537767.793823,-12.581875801086426,-2.1122477054595947,-1.8544819355010986,0.536494255065918,0.45093756914138794,-0.45698851346969604,
1,2021-02-05 10:09:23.9260,00:21,60,0,2021-02-05 10:09:26.2510,1612537766.251075,-1.1984225238848012e-05,-0.00472524669021368,0.001193096162751317,0.0130767822265625,-0.909942626953125,-0.42108154296875,-32.44166564941406,19.270645141601562,64.96920776367188,2021-02-05 10:09:27.8240,1612537767.8236508,-10.617242813110352,-0.6517137289047241,-1.34730064868927,0.2553362548351288,0.9246746301651001,-0.19807979464530945,
1,2021-02-05 10:09:23.9260,00:21,60,0,2021-02-05 10:09:26.2680,1612537766.2678962,-0.001056476030498743,-0.003768372815102339,0.0033878071699291468,0.0142059326171875,-0.910614013671875,-0.42095947265625,-32.62312316894531,19.23846435546875,64.64639282226562,2021-02-05 10:09:27.8530,1612537767.8534899,-8.29584789276123,-0.1669801026582718,-1.0990536212921143,0.22513949871063232,0.7268280386924744,-0.034233152866363525,
1,2021-02-05 10:09:23.9260,00:21,60,0,2021-02-05 10:09:26.2850,1612537766.28459,-0.0007454187725670636,-0.00657641002908349,0.004049070179462433,0.0136260986328125,-0.9099273681640625,-0.4218597412109375,-32.63142395019531,19.168533325195312,64.77288818359375,2021-02-05 10:09:27.8830,1612537767.883425,-4.487241744995117,-0.2719780206680298,-0.3456954061985016,0.23449334502220154,1.287038803100586,-0.005075462162494659,
1,2021-02-05 10:09:23.9260,00:21,60,0,2021-02-05 10:09:26.3010,1612537766.301303,-0.0017614146927371621,-0.0035052525345236063,0.001731320982798934,0.0126495361328125,-0.908935546875,-0.421661376953125,-32.62554931640625,19.3170166015625,64.82276916503906,2021-02-05 10:09:27.9150,1612537767.9154248,3.4441959857940674,0.2974177300930023,0.5776429176330566,0.151027649641037,1.8465477228164673,0.19572973251342773,
1,2021-02-05 10:09:23.9260,00:21,60,0,2021-02-05 10:09:26.3180,1612537766.317713,-0.0011267834343016148,-0.0021971079986542463,0.001979261403903365,0.0128326416015625,-0.909912109375,-0.4217529296875,-32.49217224121094,19.1025390625,64.79391479492188,2021-02-05 10:09:27.9430,1612537767.943244,12.583847045898438,0.8034805059432983,1.6947602033615112,0.2657581865787506,1.76882004737854,0.3416670262813568,
1,2021-02-05 10:09:23.9260,00:21,60,0,2021-02-05 10:09:26.3350,1612537766.334779,-0.00032650353386998177,-0.006902380846440792,0.0032916669733822346,0.013885498046875,-0.9094085693359375,-0.422576904296875,-32.49217224121094,19.1025390625,64.79391479492188,2021-02-05 10:09:27.9730,1612537767.973078,22.52194595336914,2.469188690185547,3.591468572616577,0.10351040959358215,1.158990204334259,0.6667289137840271,
1,2021-02-05 10:09:23.9260,00:21,60,0,2021-02-05 10:09:26.3510,1612537766.3513222,0.001119060325436294,-0.0030282805673778057,0.0006764429272152483,0.01275634765625,-0.9091644287109375,-0.42132568359375,-32.610260009765625,19.112060546875,64.65769958496094,2021-02-05 10:09:28.0030,1612537768.002953,16.762393951416016,-1.3118553161621094,1.429371953010559,0.8797551393508911,-1.063934825360775,-0.23971718549728394,
1,2021-02-05 10:09:23.9260,00:21,60,0,2021-02-05 10:09:26.3680,1612537766.368031,-0.0005637911963276565,-0.0020186761394143105,0.002523345174267888,0.0129852294921875,-0.909271240234375,-0.4216461181640625,-32.60694885253906,18.977203369140625,64.92497253417969,2021-02-05 10:09:28.0330,1612537768.033057,1.9174306392669678,0.44297534227371216,-0.5415837168693542,0.21381574869155884,-1.6309795081615448,-0.8028276562690735,
1,2021-02-05 10:09:23.9260,00:21,60,0,2021-02-05 10:09:26.3840,1612537766.384383,-0.0017161410069093108,-0.006927148438990116,0.00336197461001575,0.0138702392578125,-0.910247802734375,-0.422637939453125,-32.710662841796875,19.30859375,64.91490173339844,2021-02-05 10:09:28.0630,1612537768.062911,-5.561430931091309,0.3926100432872772,-0.1741398274898529,0.661813497543335,-0.39312605559825897,-0.6967180967330933,
1,2021-02-05 10:09:23.9260,00:21,60,0,2021-02-05 10:09:26.4010,1612537766.4012508,-0.0014263890916481614,-0.004577707499265671,0.0023483755066990852,0.0136871337890625,-0.9090118408203125,-0.420867919921875,-32.6807861328125,19.258621215820312,64.50965881347656,2021-02-05 10:09:28.0930,1612537768.092729,-10.119880676269531,-0.2200242280960083,-1.0646811723709106,0.5940949320793152,0.023497462272644043,-0.5617693662643433,
1,2021-02-05 10:09:23.9260,00:21,60,0,2021-02-05 10:09:26.4180,1612537766.417972,-0.0034903388004750013,-0.004838431254029274,0.0026498453225940466,0.01300048828125,-0.9098663330078125,-0.4215850830078125,-32.825927734375,19.3250732421875,64.98550415039062,2021-02-05 10:09:28.1230,1612537768.122529,-9.545047760009766,-1.0009124279022217,-1.9552491903305054,0.5738772749900818,-0.030689597129821777,-0.45633184909820557,
1,2021-02-05 10:09:23.9260,00:21,60,0,2021-02-05 10:09:26.4350,1612537766.434664,-0.0024407871533185244,-0.00427117757499218,0.005453887395560741,0.0125732421875,-0.90960693359375,-0.42254638671875,-32.825927734375,19.3250732421875,64.98550415039062,2021-02-05 10:09:28.1520,1612537768.1524482,-9.623987197875977,-1.965116262435913,-2.1601274013519287,0.39846304059028625,0.7753990292549133,-0.5400733947753906,
1,2021-02-05 10:09:23.9260,00:21,60,0,2021-02-05 10:09:26.4510,1612537766.451164,-0.0003028014034498483,-0.0065071675926446915,0.0006439523422159255,0.012969970703125,-0.9088897705078125,-0.4225006103515625,-32.62181091308594,19.224288940429688,64.97428894042969,2021-02-05 10:09:28.1820,1612537768.182331,-9.184623718261719,-1.4723687171936035,-1.439328670501709,0.2509723901748657,1.2362735271453857,-0.16278651356697083,
1,2021-02-05 10:09:23.9260,00:21,60,0,2021-02-05 10:09:26.4680,1612537766.468182,-0.0007568703731521964,-0.004560130648314953,0.0021915151737630367,0.013824462890625,-0.9090118408203125,-0.4227752685546875,-32.67555236816406,19.327667236328125,64.91757202148438,2021-02-05 10:09:28.2120,1612537768.212232,-8.898042678833008,-1.6573271751403809,-0.9611420035362244,0.264141321182251,0.9197900891304016,-0.07280752062797546,
1,2021-02-05 10:09:23.9260,00:21,60,0,2021-02-05 10:09:26.4840,1612537766.484453,-0.0013393036788329482,-0.0041705104522407055,0.0017843178939074278,0.0135345458984375,-0.9093780517578125,-0.4212493896484375,-32.64350891113281,19.139877319335938,64.9122314453125,2021-02-05 10:09:28.2420,1612537768.242279,-7.541448593139648,-1.9481196403503418,-0.026720808818936348,0.3153958022594452,1.3341114521026611,-0.19794732704758644,
1,2021-02-05 10:09:23.9260,00:21,60,0,2021-02-05 10:09:26.5010,1612537766.5013409,-0.00031372037483379245,-0.005047223065048456,0.0021726067643612623,0.013763427734375,-0.9110107421875,-0.4224090576171875,-32.671783447265625,19.344314575195312,64.62252807617188,2021-02-05 10:09:28.2720,1612537768.271976,-1.304000973701477,-0.8939441442489624,0.7564380168914795,0.20010021328926086,1.578633427619934,-0.35235245525836945,
1,2021-02-05 10:09:23.9260,00:21,60,0,2021-02-05 10:09:26.5180,1612537766.5179272,-0.000520647969096899,-0.005327120888978243,0.0011984225129708648,0.0135955810546875,-0.910491943359375,-0.421478271484375,-32.71589660644531,19.481689453125,64.48599243164062,2021-02-05 10:09:28.3020,1612537768.3024411,3.9173176288604736,0.07943172007799149,1.2255159616470337,0.33091357350349426,1.243031620979309,-0.1483115218579769,
1,2021-02-05 10:09:23.9260,00:21,60,0,2021-02-05 10:09:26.5350,1612537766.534529,-0.0017014936311170459,-0.003909253980964422,-0.000598145998083055,0.0130615234375,-0.91064453125,-0.422607421875,-32.71589660644531,19.481689453125,64.48599243164062,2021-02-05 10:09:28.3320,1612537768.332281,15.546184539794922,2.6394100189208984,2.591327667236328,0.2068590223789215,1.8223627805709839,0.25572875142097473,
1,2021-02-05 10:09:23.9260,00:21,60,0,2021-02-05 10:09:26.5510,1612537766.55143,-0.00213558878749609,-0.004791825544089079,0.0015278555219992995,0.0134124755859375,-0.9084320068359375,-0.42169189453125,-32.74937438964844,19.204421997070312,64.72296142578125,2021-02-05 10:09:28.3620,1612537768.362041,25.38184356689453,1.0159140825271606,3.7250497341156006,0.5587710738182068,1.5505157709121704,0.9599570035934448,
1,2021-02-05 10:09:23.9260,00:21,60,0,2021-02-05 10:09:26.5680,1612537766.5680919,-0.0009781790431588888,-0.002127865795046091,0.003894606838002801,0.0129547119140625,-0.9090118408203125,-0.4215850830078125,-32.742095947265625,19.295684814453125,64.64903259277344,2021-02-05 10:09:28.3920,1612537768.392093,18.48931121826172,-3.4569551944732666,0.9928004145622253,0.9979802370071411,-0.11910943686962128,-0.18208467960357666,
1,2021-02-05 10:09:23.9260,00:21,60,0,2021-02-05 10:09:26.5850,1612537766.584597,-0.002751844236627221,-0.003953728824853897,0.004048004746437073,0.0132293701171875,-0.90838623046875,-0.4214019775390625,-32.8343505859375,19.3756103515625,64.37847900390625,2021-02-05 10:09:28.4220,1612537768.4220219,-5.78060245513916,1.1720150709152222,-1.5348093509674072,-0.22237154841423035,-1.7812324315309525,-0.40603792667388916,
1,2021-02-05 10:09:23.9260,00:21,60,0,2021-02-05 10:09:26.6010,1612537766.60132,-0.0008551410282962024,-0.004452272783964872,-2.1837920940015465e-05,0.0136260986328125,-0.9108734130859375,-0.4223175048828125,-32.8443603515625,19.557174682617188,64.57736206054688,2021-02-05 10:09:28.4520,1612537768.451663,-13.774352073669434,0.44590696692466736,-1.5160439014434814,0.6268711686134338,-0.22760068625211716,-0.01976168155670166,
1,2021-02-05 10:09:23.9260,00:21,60,0,2021-02-05 10:09:26.6180,1612537766.618133,-0.0016743293963372707,-0.002377936616539955,0.001734516816213727,0.0133056640625,-0.9091949462890625,-0.4210968017578125,-32.69273376464844,19.070175170898438,64.64979553222656,2021-02-05 10:09:28.4820,1612537768.4818258,-16.184528350830078,-2.043607473373413,-2.7884819507598877,0.5265755951404572,0.8060097098350525,-0.00017058849334716797,
1,2021-02-05 10:09:23.9260,00:21,60,0,2021-02-05 10:09:26.6350,1612537766.634835,-0.0017864484107121825,-0.004621915984898806,0.0015512913232669234,0.0133056640625,-0.9108123779296875,-0.4225921630859375,-32.72639465332031,19.236373901367188,64.52545166015625,2021-02-05 10:09:28.5110,1612537768.51144,-13.905168533325195,-0.42509207129478455,-2.0947608947753906,-0.01248621940612793,0.8315794467926025,0.3965393006801605,
1,2021-02-05 10:09:23.9260,00:21,60,0,2021-02-05 10:09:26.6510,1612537766.6510592,-0.0023425165563821793,-0.005919940769672394,0.0038429414853453636,0.013824462890625,-0.909454345703125,-0.4215850830078125,-32.72639465332031,19.236373901367188,64.52545166015625,2021-02-05 10:09:28.5410,1612537768.5413032,-9.0050048828125,-0.8513442277908325,-1.1905553340911865,0.07770916819572449,1.3164260387420654,0.6273404508829117,
1,2021-02-05 10:09:23.9260,00:21,60,0,2021-02-05 10:09:26.6680,1612537766.667995,-0.003288205014541745,-0.0027973842807114124,-0.0005765743553638458,0.0134429931640625,-0.9105377197265625,-0.4215850830078125,-32.77668762207031,19.298080444335938,64.64445495605469,2021-02-05 10:09:28.5710,1612537768.570866,-0.2139434814453125,-0.7397434115409851,-0.2822205424308777,0.16611891984939575,2.1461225152015686,0.1891678348183632,
1,2021-02-05 10:09:23.9260,00:21,60,0,2021-02-05 10:09:26.6840,1612537766.684488,-0.001978728687390685,-0.003811782458797097,0.0025129588320851326,0.0124664306640625,-0.90997314453125,-0.421173095703125,-32.692657470703125,19.2083740234375,64.54856872558594,2021-02-05 10:09:28.6010,1612537768.601131,-0.20562809705734253,-2.084536075592041,0.752440869808197,0.5910151600837708,0.47980165481567383,-1.347910813987255,
1,2021-02-05 10:09:23.9260,00:21,60,0,2021-02-05 10:09:26.7010,1612537766.7012858,-0.0018991001415997744,-0.0028423918411135674,0.003338272450491786,0.012908935546875,-0.9102783203125,-0.4226837158203125,-32.756988525390625,19.2139892578125,64.44972229003906,2021-02-05 10:09:28.6310,1612537768.631497,1.6978727579116821,0.4893757998943329,0.9674479365348816,0.1080588698387146,1.0756114721298218,-0.3971966952085495,
1,2021-02-05 10:09:23.9260,00:21,60,0,2021-02-05 10:09:26.7180,1612537766.7179,-0.001675128354690969,-0.0019592875614762306,0.0035089810844510794,0.0131378173828125,-0.908935546875,-0.422698974609375,-32.618438720703125,19.025741577148438,64.38055419921875,2021-02-05 10:09:28.6610,1612537768.660845,9.27292251586914,2.892601490020752,2.084030866622925,0.28530439734458923,1.3909198641777039,-0.33956263959407806,
1,2021-02-05 10:09:23.9260,00:21,60,0,2021-02-05 10:09:26.7350,1612537766.734779,-0.003313771216198802,-0.004845355171710253,0.00279099284671247,0.0135498046875,-0.9081268310546875,-0.4234466552734375,-32.735015869140625,19.19891357421875,64.482177734375,2021-02-05 10:09:28.6910,1612537768.6913772,21.653284072875977,6.341073513031006,4.005505561828613,0.31746840476989746,1.5347821712493896,-0.7477776408195496,
1,2021-02-05 10:09:23.9260,00:21,60,0,2021-02-05 10:09:26.7510,1612537766.751031,-0.0014413028256967664,-0.004816326778382063,0.0018607506062835455,0.014068603515625,-0.90869140625,-0.4223480224609375,-32.735015869140625,19.19891357421875,64.482177734375,2021-02-05 10:09:28.7210,1612537768.720777,24.776348114013672,-1.9429397583007812,4.205003261566162,1.3572618961334229,0.8492724597454071,-0.3043392300605774,
1,2021-02-05 10:09:23.9260,00:21,60,0,2021-02-05 10:09:26.7680,1612537766.768053,-0.0005182511522434652,-0.0011922972043976188,0.0036155073903501034,0.0127410888671875,-0.90899658203125,-0.42132568359375,-32.71376037597656,19.275360107421875,64.41789245605469,2021-02-05 10:09:28.7530,1612537768.753131,10.845013618469238,-0.7021117210388184,-1.8481874465942383,0.5139856338500977,0.8090558350086212,-0.32228386402130127,
1,2021-02-05 10:09:23.9260,00:21,60,0,2021-02-05 10:09:26.7840,1612537766.784461,-0.002329733222723007,-0.0031702269334346056,0.0017457021167501807,0.01373291015625,-0.9098663330078125,-0.4206390380859375,-32.85044860839844,19.402496337890625,64.20257568359375,2021-02-05 10:09:28.7810,1612537768.7808728,-5.594388484954834,1.8772923946380615,1.647492527961731,0.2497943639755249,-2.4742537438869476,0.0202905535697937,
1,2021-02-05 10:09:23.9260,00:21,60,0,2021-02-05 10:09:26.8010,1612537766.801306,-0.0010282464791089296,-0.0020748688839375973,0.0034445326309651136,0.0123443603515625,-0.9092864990234375,-0.421356201171875,-32.7025146484375,19.176971435546875,64.44326782226562,2021-02-05 10:09:28.8110,1612537768.8109078,-10.328349113464355,1.4100697040557861,-0.423147588968277,1.0021743178367615,-0.2853371500968933,-1.0501585006713867,
1,2021-02-05 10:09:23.9260,00:21,60,0,2021-02-05 10:09:26.8170,1612537766.8166761,-0.002169144805520773,-0.005270129535347223,0.0011262508342042565,0.013275146484375,-0.9084625244140625,-0.4221038818359375,-32.75196838378906,19.2047119140625,64.69378662109375,2021-02-05 10:09:28.8400,1612537768.8399482,-8.634599685668945,-1.7149159908294678,-1.1171766519546509,1.1843182444572449,0.03610173612833023,-1.368792474269867,
1,2021-02-05 10:09:23.9260,00:21,60,0,2021-02-05 10:09:26.8330,1612537766.832951,0.0004500742070376873,-0.0027196200098842382,-0.0001994707708945498,0.0134429931640625,-0.910675048828125,-0.4222259521484375,-32.75196838378906,19.2047119140625,64.69378662109375,2021-02-05 10:09:28.8700,1612537768.87035,-13.086989402770996,-1.0038950443267822,-0.9909827709197998,0.4179156422615051,-0.20630282163619995,-0.8361694812774658,
1,2021-02-05 10:09:23.9260,00:21,60,0,2021-02-05 10:09:26.8510,1612537766.851066,-0.0008602010202594101,-0.003747866488993168,0.004011785611510277,0.0131683349609375,-0.9094696044921875,-0.4243927001953125,-32.71368408203125,19.38189697265625,64.4798583984375,2021-02-05 10:09:28.9290,1612537768.928962,-16.828859329223633,0.7549819350242615,-2.471872568130493,0.3805164098739624,0.06293416023254395,0.09049379825592041,
1,2021-02-05 10:09:23.9260,00:21,60,0,2021-02-05 10:09:26.8680,1612537766.868145,-0.0033718282356858253,-0.004206462763249874,0.0009779128013178706,0.0132293701171875,-0.90863037109375,-0.42303466796875,-32.734588623046875,19.223556518554688,64.50785827636719,2021-02-05 10:09:28.9300,1612537768.930077,-14.139110565185547,0.10286695510149002,-1.9047561883926392,0.4682551622390747,0.34314411878585815,0.7363174110651016,
1,2021-02-05 10:09:23.9260,00:21,60,0,2021-02-05 10:09:26.8840,1612537766.884393,-0.002103098202496767,-0.002709766384214163,0.0017204020405188203,0.0136260986328125,-0.909820556640625,-0.42169189453125,-32.67454528808594,19.19329833984375,64.6300048828125,2021-02-05 10:09:28.9600,1612537768.959816,-5.663713455200195,-0.7665039300918579,-0.25640714168548584,0.42621758580207825,1.6928902864456177,0.4462748393416405,
1,2021-02-05 10:09:23.9260,00:21,60,0,2021-02-05 10:09:26.9010,1612537766.90135,8.468852320220321e-05,-0.004610730800777674,0.0011550129856914282,0.012481689453125,-0.9100189208984375,-0.420989990234375,-32.6551513671875,19.061065673828125,64.785888671875,2021-02-05 10:09:28.9900,1612537768.98966,5.77846097946167,0.10824006050825119,1.7372543811798096,0.33327603340148926,1.869251549243927,0.10286080837249756,
1,2021-02-05 10:09:23.9260,00:21,60,0,2021-02-05 10:09:26.9180,1612537766.917901,-0.003706587478518486,-0.004345479886978865,0.0013081447687000036,0.01348876953125,-0.9105987548828125,-0.4222564697265625,-32.70973205566406,19.202346801757812,64.83627319335938,2021-02-05 10:09:29.0200,1612537769.019748,17.514244079589844,0.2187202274799347,3.5244944095611572,0.5424728989601135,1.34105384349823,0.3126571923494339,
1,2021-02-05 10:09:23.9260,00:21,60,0,2021-02-05 10:09:26.9350,1612537766.934633,-0.004728708881884813,-0.0027838023379445076,0.0027321369852870703,0.0144805908203125,-0.908966064453125,-0.4219818115234375,-32.73744201660156,19.333892822265625,64.73764038085938,2021-02-05 10:09:29.0500,1612537769.04957,27.336292266845703,0.2140563726425171,3.535818576812744,0.4420994520187378,1.1831761002540588,0.8153789639472961,
1,2021-02-05 10:09:23.9260,00:21,60,0,2021-02-05 10:09:26.9510,1612537766.951045,-0.0015355786308646202,-0.003907389938831329,0.0006149238906800747,0.0137176513671875,-0.9087982177734375,-0.42230224609375,-32.73744201660156,19.333892822265625,64.73764038085938,2021-02-05 10:09:29.0790,1612537769.079287,20.039335250854492,-1.5434112548828125,2.49368953704834,0.9788121581077576,-1.0395940691232681,-0.05984842777252197,
1,2021-02-05 10:09:23.9260,00:21,60,0,2021-02-05 10:09:26.9680,1612537766.967987,-0.00042876892257481813,-0.0012604740913957357,0.0021108214277774096,0.013336181640625,-0.909088134765625,-0.4221343994140625,-32.70530700683594,19.202880859375,64.75028991699219,2021-02-05 10:09:29.1100,1612537769.109618,-2.1586925983428955,0.8976476788520813,-0.3503820300102234,0.13008785247802734,-2.183680146932602,-0.6084790825843811,
1,2021-02-05 10:09:23.9260,00:21,60,0,2021-02-05 10:09:26.9850,1612537766.9846,-0.0031989889685064554,-0.0028493159916251898,0.0006697850185446441,0.0125732421875,-0.9090423583984375,-0.42303466796875,-32.68963623046875,19.2154541015625,64.64309692382812,2021-02-05 10:09:29.1390,1612537769.139117,-12.121891975402832,1.9335697889328003,-1.2275396585464478,0.6613830327987671,-0.7301150411367416,-0.5213967561721802,
1,2021-02-05 10:09:23.9260,00:21,60,0,2021-02-05 10:09:27.0010,1612537767.0012832,-0.0021584921050816774,-0.004434163216501474,0.003063966752961278,0.0131988525390625,-0.908966064453125,-0.422698974609375,-32.733489990234375,19.2218017578125,65.119384765625,2021-02-05 10:09:29.1690,1612537769.168548,-12.360753059387207,-0.55568528175354,-1.9573925733566284,0.8999385833740234,0.3132309243083,-0.4050484895706177,
1,2021-02-05 10:09:23.9260,00:21,60,0,2021-02-05 10:09:27.0180,1612537767.01796,-0.00032890037982724607,-0.003989947959780693,0.002942260354757309,0.012908935546875,-0.9096832275390625,-0.421783447265625,-32.648406982421875,19.052337646484375,65.07275390625,2021-02-05 10:09:29.1990,1612537769.198777,-11.384449005126953,-0.6322639584541321,-2.0011610984802246,0.6714844107627869,0.44639045000076294,-0.3921862840652466,
1,2021-02-05 10:09:23.9260,00:21,60,0,2021-02-05 10:09:27.0350,1612537767.0347261,-0.0011177286505699158,-0.0049279131926596165,0.003567836945876479,0.0132293701171875,-0.9093780517578125,-0.4209442138671875,-32.64509582519531,19.07061767578125,64.620361328125,2021-02-05 10:09:29.2290,1612537769.228682,-12.99732780456543,0.9504088163375854,-2.068344831466675,0.38086581230163574,-0.04854714870452881,-0.03348541259765625,
1,2021-02-05 10:09:23.9260,00:21,60,0,2021-02-05 10:09:27.0520,1612537767.051513,-0.003186205867677927,-0.004077033139765263,0.0028597023338079453,0.0142669677734375,-0.9095306396484375,-0.4212646484375,-32.64509582519531,19.07061767578125,64.620361328125,2021-02-05 10:09:29.2590,1612537769.258527,-10.780688285827637,1.3858598470687866,-1.8787940740585327,0.4188452363014221,0.8252145051956177,0.6334108859300613,
1,2021-02-05 10:09:23.9260,00:21,60,0,2021-02-05 10:09:27.0680,1612537767.06806,-0.00012090751260984689,-0.0060179452411830425,0.0017757958266884089,0.013824462890625,-0.90924072265625,-0.4226226806640625,-32.47709655761719,19.087448120117188,64.91290283203125,2021-02-05 10:09:29.2890,1612537769.2894502,-5.069293022155762,0.5652702450752258,-0.5436927080154419,0.5250621438026428,1.4284701943397522,0.38691727072000504,
1,2021-02-05 10:09:23.9260,00:21,60,0,2021-02-05 10:09:27.0840,1612537767.0843868,-0.0021965752821415663,-0.0017177389236167073,0.004541222471743822,0.013580322265625,-0.91021728515625,-0.4216461181640625,-32.66532897949219,19.154327392578125,64.96524047851562,2021-02-05 10:09:29.3190,1612537769.319051,1.810888409614563,0.6117400527000427,0.7346615195274353,0.4403758645057678,1.5757633447647095,0.06161461025476456,
1,2021-02-05 10:09:23.9260,00:21,60,0,2021-02-05 10:09:27.1010,1612537767.101234,0.00022956448083277792,-0.004878644831478596,0.0020636834669858217,0.01300048828125,-0.9092864990234375,-0.422607421875,-32.534820556640625,19.153335571289062,65.135009765625,2021-02-05 10:09:29.3480,1612537769.348432,8.778803825378418,0.1994396448135376,1.6939162015914917,0.5670081377029419,1.366153597831726,0.1825269740074873,
1,2021-02-05 10:09:23.9260,00:21,60,0,2021-02-05 10:09:27.1180,1612537767.118062,-0.0019225359428673983,-0.0054637412540614605,0.0031406658235937357,0.0128326416015625,-0.90911865234375,-0.4224853515625,-32.587890625,18.967361450195312,64.50798034667969,2021-02-05 10:09:29.3780,1612537769.378329,16.301254272460938,-0.5583735704421997,3.691967725753784,0.6830349564552307,1.3848623037338257,0.3047995865345001,
1,2021-02-05 10:09:23.9260,00:21,60,0,2021-02-05 10:09:27.1350,1612537767.134656,-0.0011771172285079956,-0.002873817225918174,0.0006000102148391306,0.0132904052734375,-0.908843994140625,-0.422943115234375,-32.628448486328125,19.06744384765625,64.58462524414062,2021-02-05 10:09:29.4080,1612537769.4077768,22.04560661315918,-0.46534618735313416,3.2404849529266357,0.6226248145103455,0.2453869879245758,-0.027211666107177734,
1,2021-02-05 10:09:23.9260,00:21,60,0,2021-02-05 10:09:27.1510,1612537767.151458,0.00019707392493728548,-0.007967378944158554,0.0029854036401957273,0.0136871337890625,-0.910614013671875,-0.422882080078125,-32.593658447265625,18.935012817382812,64.72837829589844,2021-02-05 10:09:29.4380,1612537769.4383512,15.210084915161133,-0.9394310712814331,2.430438756942749,0.8832600712776184,-1.1158272176980972,-0.21577876806259155,
1,2021-02-05 10:09:23.9260,00:21,60,0,2021-02-05 10:09:27.1680,1612537767.1680899,-0.0021789984311908484,-0.004373176954686642,0.0021289309952408075,0.0138092041015625,-0.910247802734375,-0.422119140625,-32.593658447265625,18.935012817382812,64.72837829589844,2021-02-05 10:09:29.4680,1612537769.4681602,-7.117058753967285,0.1004195511341095,-0.3343983292579651,0.2901817560195923,-2.4448509216308594,-0.7582442164421082,
1,2021-02-05 10:09:23.9260,00:21,60,0,2021-02-05 10:09:27.1850,1612537767.18451,-0.0014708638191223145,3.99474156438373e-05,0.002927346620708704,0.0130157470703125,-0.90985107421875,-0.4203948974609375,-32.64727783203125,19.123046875,64.6575927734375,2021-02-05 10:09:29.4980,1612537769.497823,-18.556015014648438,0.051822323352098465,-2.8444602489471436,0.7403616905212402,-0.1625530645251274,-0.20369356870651245,
1,2021-02-05 10:09:23.9260,00:21,60,0,2021-02-05 10:09:27.2010,1612537767.2011929,-0.0005142564186826348,-0.0036671727430075407,0.0012695288751274347,0.0130615234375,-0.9097442626953125,-0.4217071533203125,-32.58354187011719,19.098114013671875,64.71504211425781,2021-02-05 10:09:29.5280,1612537769.528198,-18.358266830444336,-2.1600914001464844,-3.135639190673828,0.8931028246879578,0.8697279691696167,0.13282150030136108,
1,2021-02-05 10:09:23.9260,00:21,60,0,2021-02-05 10:09:27.2180,1612537767.217905,0.00041252365917898715,-0.005518868565559387,0.0014769891276955605,0.0126495361328125,-0.9092254638671875,-0.422698974609375,-32.64353942871094,19.1497802734375,64.58700561523438,2021-02-05 10:09:29.5580,1612537769.55759,-17.072097778320312,-0.3686538636684418,-2.4165468215942383,0.31169837713241577,0.6587405800819397,0.2628214806318283,
1,2021-02-05 10:09:23.9260,00:21,60,0,2021-02-05 10:09:27.2350,1612537767.235203,-0.0014660701854154468,-0.002323341788724065,0.000520647969096899,0.0137939453125,-0.90887451171875,-0.4221649169921875,-32.65785217285156,19.037002563476562,65.27476501464844,2021-02-05 10:09:29.5880,1612537769.5876641,-11.920074462890625,-1.0625354051589966,-2.5776329040527344,0.5741506516933441,1.7207969427108765,0.8984056934714317,
1,2021-02-05 10:09:23.9260,00:21,60,0,2021-02-05 10:09:27.2510,1612537767.251289,-0.0015014902455732226,-0.0027110979426652193,0.003686347510665655,0.012542724609375,-0.9090576171875,-0.4219512939453125,-32.75738525390625,19.234176635742188,64.48629760742188,2021-02-05 10:09:29.6170,1612537769.617463,-4.892490386962891,-1.2787867784500122,-0.713390052318573,0.5601127445697784,1.4340539574623108,0.5693767070770264,
1,2021-02-05 10:09:23.9260,00:21,60,0,2021-02-05 10:09:27.2680,1612537767.26809,0.00017976337403524667,-0.0028543761000037193,0.0022714100778102875,0.0134735107421875,-0.9089813232421875,-0.4226226806640625,-32.75738525390625,19.234176635742188,64.48629760742188,2021-02-05 10:09:29.6470,1612537769.647406,2.224090576171875,0.4994216561317444,-0.7624907493591309,0.16858777403831482,1.0840022563934326,0.11344406008720398,
1,2021-02-05 10:09:23.9260,00:21,60,0,2021-02-05 10:09:27.2840,1612537767.284185,0.0007392935222014785,-0.0013558153295889497,0.0027803401462733746,0.0130157470703125,-0.91009521484375,-0.420654296875,-32.61677551269531,19.061264038085938,64.63301086425781,2021-02-05 10:09:29.6770,1612537769.6772351,4.847612380981445,0.8802257776260376,-0.3027002513408661,0.2530457079410553,0.4454825520515442,-0.08752769231796265,
1,2021-02-05 10:09:23.9260,00:21,60,0,2021-02-05 10:09:27.3000,1612537767.300281,-0.003019491909071803,-0.004367051646113396,0.0027145601343363523,0.013214111328125,-0.9107513427734375,-0.42034912109375,-32.59532165527344,18.803253173828125,64.81849670410156,2021-02-05 10:09:29.7070,1612537769.7071471,9.31867504119873,1.0117517709732056,0.9361730217933655,0.1781858503818512,0.9745193123817444,-0.008240923285484314,
1,2021-02-05 10:09:23.9260,00:21,60,0,2021-02-05 10:09:27.3180,1612537767.317971,-0.002644785214215517,-0.004737497307360172,-0.0014626081101596355,0.0134124755859375,-0.9093475341796875,-0.4208831787109375,-32.39332580566406,18.961273193359375,64.66331481933594,2021-02-05 10:09:29.7370,1612537769.737253,17.993383407592773,0.8365877270698547,2.4796226024627686,0.3726430833339691,1.4418662190437317,0.5057717263698578,
1,2021-02-05 10:09:23.9260,00:21,60,0,2021-02-05 10:09:27.3350,1612537767.33479,-0.0025246767327189445,-0.0022482406347990036,-0.00017789915727917105,0.0133209228515625,-0.909942626953125,-0.42095947265625,-32.5987548828125,19.01568603515625,64.54463195800781,2021-02-05 10:09:29.7710,1612537769.770513,25.37028694152832,1.58003830909729,3.8645029067993164,0.5709907412528992,1.0232166349887848,0.4334059953689575,
1,2021-02-05 10:09:23.9260,00:21,60,0,2021-02-05 10:09:27.3510,1612537767.351269,-0.0009840379934757948,-0.006596383638679981,0.0006609965930692852,0.013763427734375,-0.90972900390625,-0.4220123291015625,-32.83647155761719,19.280609130859375,64.35896301269531,2021-02-05 10:09:29.7970,1612537769.796879,18.722108840942383,-2.258427381515503,3.4124844074249268,0.991446316242218,-0.8247963190078735,-0.006686210632324219,
1,2021-02-05 10:09:23.9260,00:21,60,0,2021-02-05 10:09:27.3680,1612537767.368041,-0.0014080132823437452,-0.002814695006236434,0.005200088489800692,0.012969970703125,-0.9089508056640625,-0.4232940673828125,-32.83647155761719,19.280609130859375,64.35896301269531,2021-02-05 10:09:29.8260,1612537769.82648,-2.122631788253784,0.5812617540359497,-0.033002208918333054,-0.11890482902526855,-2.5043126344680786,-0.7175939679145813,
1,2021-02-05 10:09:23.9260,00:21,60,0,2021-02-05 10:09:27.3840,1612537767.384368,-0.004294613376259804,-0.002950516063719988,0.0016610135789960623,0.01336669921875,-0.9097900390625,-0.4225006103515625,-32.64048767089844,19.036087036132812,64.86857604980469,2021-02-05 10:09:29.8560,1612537769.8560991,-11.846202850341797,2.1050703525543213,-0.7820065021514893,0.6261661052703857,-0.46781666576862335,-0.7396727800369263,
1,2021-02-05 10:09:23.9260,00:21,60,0,2021-02-05 10:09:27.4010,1612537767.4013019,-0.0019590212032198906,-0.005907956510782242,0.0016101471846923232,0.013427734375,-0.9092254638671875,-0.4225006103515625,-32.473480224609375,19.0789794921875,64.580322265625,2021-02-05 10:09:29.8860,1612537769.88621,-7.7081990242004395,-0.8702408671379089,-1.2780392169952393,0.8670865297317505,0.5655043795704842,-0.4425538182258606,
1,2021-02-05 10:09:23.9260,00:21,60,0,2021-02-05 10:09:27.4180,1612537767.417894,-0.0017832526937127113,-0.0070832096971571445,0.0007145261042751372,0.013275146484375,-0.9097137451171875,-0.4210662841796875,-32.48802185058594,19.187744140625,64.67752075195312,2021-02-05 10:09:29.9260,1612537769.925533,-8.12356185913086,-1.2509331703186035,-1.5328887701034546,0.533163845539093,0.33674150705337524,-0.5779300928115845,
1,2021-02-05 10:09:23.9260,00:21,60,0,2021-02-05 10:09:27.4350,1612537767.434719,-0.00233266269788146,-0.004350806120783091,0.0020610203500837088,0.01348876953125,-0.9095611572265625,-0.4209136962890625,-32.59727478027344,19.173171997070312,64.72917175292969,2021-02-05 10:09:29.9460,1612537769.9459538,-14.479991912841797,0.9574318528175354,-2.1492388248443604,0.13509291410446167,-0.013482809066772461,-0.12302219867706299,
1,2021-02-05 10:09:23.9260,00:21,60,0,2021-02-05 10:09:27.4510,1612537767.451292,-0.001079645473510027,-0.0017001620726659894,0.0010402307379990816,0.0138092041015625,-0.90911865234375,-0.4215240478515625,-32.70158386230469,19.210052490234375,64.54255676269531,2021-02-05 10:09:29.9760,1612537769.9757571,-16.31130027770996,1.1917037963867188,-1.5386754274368286,0.36368528008461,0.45009034872055054,0.4706915318965912,
1,2021-02-05 10:09:23.9260,00:21,60,0,2021-02-05 10:09:27.4680,1612537767.4680638,-0.002671416848897934,-0.002525209216400981,-0.0011427623685449362,0.013824462890625,-0.9098052978515625,-0.4224700927734375,-32.70158386230469,19.210052490234375,64.54255676269531,2021-02-05 10:09:30.0060,1612537770.005525,-10.20677375793457,0.6683968901634216,-0.39160117506980896,0.439094603061676,1.2772378325462341,0.7033361494541168,
1,2021-02-05 10:09:23.9260,00:21,60,0,2021-02-05 10:09:27.4840,1612537767.484498,-0.0008215851848945022,-0.0028780782595276833,-0.0002716424351092428,0.0128326416015625,-0.9095916748046875,-0.42041015625,-32.78326416015625,19.181472778320312,64.78251647949219,2021-02-05 10:09:30.0360,1612537770.0356379,0.23367264866828918,0.5811197757720947,1.3785076141357422,0.4286269545555115,1.7429977655410767,0.6823077648878098,
1,2021-02-05 10:09:23.9260,00:21,60,0,2021-02-05 10:09:27.5010,1612537767.501291,0.00045806370326317847,-0.005726861767470837,0.000538491178303957,0.01312255859375,-0.910186767578125,-0.422943115234375,-32.68385314941406,19.002777099609375,64.97602844238281,2021-02-05 10:09:30.0650,1612537770.065415,4.332364559173584,1.1061969995498657,1.896909475326538,0.4417639374732971,0.8944258093833923,0.39214690029621124,
1,2021-02-05 10:09:23.9260,00:21,60,0,2021-02-05 10:09:27.5180,1612537767.517803,-0.001079645473510027,-0.004764395300298929,0.0032860743813216686,0.0137939453125,-0.9093475341796875,-0.422576904296875,-32.5013427734375,19.00146484375,65.23680114746094,2021-02-05 10:09:30.0950,1612537770.0951881,2.821348190307617,1.5287740230560303,1.9930741786956787,0.4604399800300598,0.4917771816253662,0.11326313018798828,
1,2021-02-05 10:09:23.9260,00:21,60,0,2021-02-05 10:09:27.5350,1612537767.534682,-0.0026439863722771406,-0.0028762139845639467,0.0017829863354563713,0.012939453125,-0.90960693359375,-0.423126220703125,-32.680694580078125,19.102752685546875,64.9403076171875,2021-02-05 10:09:30.1250,1612537770.124943,5.160357475280762,1.5491666793823242,1.805798053741455,0.5847219824790955,1.0594653487205505,0.07624621130526066,
1,2021-02-05 10:09:23.9260,00:21,60,0,2021-02-05 10:09:27.5520,1612537767.551563,-0.0017222663154825568,-0.005862150341272354,0.0020120181143283844,0.01397705078125,-0.9095458984375,-0.4223480224609375,-32.55242919921875,19.02825927734375,65.146484375,2021-02-05 10:09:30.1550,1612537770.154831,8.810378074645996,0.9545469880104065,1.9135138988494873,0.798283040523529,1.123797059059143,-0.3341064304113388,
1,2021-02-05 10:09:23.9260,00:21,60,0,2021-02-05 10:09:27.5680,1612537767.567914,-2.609897819638718e-05,-0.0024458470288664103,0.00040772996726445854,0.01373291015625,-0.909515380859375,-0.42254638671875,-32.55242919921875,19.02825927734375,65.146484375,2021-02-05 10:09:30.1850,1612537770.184791,10.895537376403809,0.09813673794269562,1.7760441303253174,0.8134646415710449,0.8114205598831177,-0.4473690688610077,
1,2021-02-05 10:09:23.9260,00:21,60,0,2021-02-05 10:09:27.5840,1612537767.5844622,-0.0012540825409814715,-0.005625661462545395,0.003434146288782358,0.0134124755859375,-0.908905029296875,-0.420196533203125,-32.60272216796875,19.024948120117188,65.14360046386719,2021-02-05 10:09:30.2150,1612537770.21456,12.415887832641602,-0.5702879428863525,2.0163486003875732,0.8046141266822815,0.47186991572380066,-0.25869065523147583,
1,2021-02-05 10:09:23.9260,00:21,60,0,2021-02-05 10:09:27.6010,1612537767.6012812,-0.0012319782981649041,-0.0037260286044329405,0.003114300547167659,0.0133209228515625,-0.909088134765625,-0.4215087890625,-32.5762939453125,18.813491821289062,65.12586975097656,2021-02-05 10:09:30.2450,1612537770.2450309,14.749329566955566,-0.8515818119049072,2.781684637069702,0.8356958627700806,0.08114314079284668,-0.41829508543014526,
1,2021-02-05 10:09:23.9260,00:21,60,0,2021-02-05 10:09:27.6180,1612537767.6178079,-0.002049568807706237,-0.0025481125339865685,0.00245090713724494,0.013092041015625,-0.909942626953125,-0.4211273193359375,-32.59806823730469,18.6937255859375,65.15805053710938,2021-02-05 10:09:30.2750,1612537770.274512,9.89599895477295,-2.5344488620758057,2.554367780685425,0.9060395359992981,-0.9394350349903107,-0.8193258047103882,
1,2021-02-05 10:09:23.9260,00:21,60,0,2021-02-05 10:09:27.6350,1612537767.634557,-0.002439455594867468,-0.004737763665616512,0.0013259878614917397,0.0128631591796875,-0.909149169921875,-0.422607421875,-32.609619140625,19.04681396484375,64.90426635742188,2021-02-05 10:09:30.3040,1612537770.304307,-0.44510889053344727,-0.7886274456977844,0.7403095364570618,0.4804575443267822,-0.7296702563762665,-1.002324402332306,
1,2021-02-05 10:09:23.9260,00:21,60,0,2021-02-05 10:09:27.6510,1612537767.651231,-0.004039216320961714,-0.005301554687321186,0.0018996327416971326,0.0137786865234375,-0.9094696044921875,-0.422576904296875,-32.68873596191406,19.003204345703125,64.92842102050781,2021-02-05 10:09:30.3340,1612537770.334196,-8.22775650024414,-0.16782771050930023,0.029306374490261078,0.7696878910064697,-0.26183727383613586,-0.9365125894546509,
1,2021-02-05 10:09:23.9260,00:21,60,0,2021-02-05 10:09:27.6680,1612537767.667983,-0.0006607302348129451,-0.0044410875998437405,0.0003246393462177366,0.0131683349609375,-0.90936279296875,-0.4235992431640625,-32.7056884765625,19.037307739257812,64.88507080078125,2021-02-05 10:09:30.3640,1612537770.364128,-12.984965324401855,-0.47325369715690613,-1.8071962594985962,0.7156107425689697,-0.2653516083955765,-0.5312082171440125,
1,2021-02-05 10:09:23.9260,00:21,60,0,2021-02-05 10:09:27.6840,1612537767.684382,-0.0011683288030326366,-0.0037326866295188665,0.0014769891276955605,0.013031005859375,-0.90948486328125,-0.4217376708984375,-32.7056884765625,19.037307739257812,64.88507080078125,2021-02-05 10:09:30.3940,1612537770.394057,-14.7341947555542,0.037176936864852905,-1.7390516996383667,0.6075484156608582,0.10866564512252808,-0.44930076599121094,
1,2021-02-05 10:09:23.9260,00:21,60,0,2021-02-05 10:09:27.7010,1612537767.700974,4.1278995922766626e-05,-0.004375040996819735,0.0006317017832770944,0.013336181640625,-0.9095306396484375,-0.4219970703125,-32.6357421875,19.02703857421875,65.15574645996094,2021-02-05 10:09:30.4240,1612537770.423903,-15.725625038146973,2.3957037925720215,-1.7506529092788696,0.2937362790107727,-0.3521854877471924,0.24048295617103577,
1,2021-02-05 10:09:23.9260,00:21,60,0,2021-02-05 10:09:27.7180,1612537767.718062,-0.0022743395529687405,-0.0022277343086898327,0.0005257080192677677,0.0136260986328125,-0.910369873046875,-0.421661376953125,-32.637451171875,19.221817016601562,64.97654724121094,2021-02-05 10:09:30.4540,1612537770.453793,-10.513579368591309,1.8996063470840454,-1.2455545663833618,0.48936933279037476,1.1142122745513916,1.0088781639933586,
1,2021-02-05 10:09:23.9260,00:21,60,0,2021-02-05 10:09:27.7350,1612537767.734541,-0.0035095135681331158,-0.0037209687288850546,0.0024290692526847124,0.013519287109375,-0.90972900390625,-0.4215240478515625,-32.621429443359375,19.19189453125,65.15611267089844,2021-02-05 10:09:30.4840,1612537770.4836211,-0.7319318056106567,0.9766154289245605,0.6841763257980347,0.5390062928199768,1.678802728652954,0.5781500712037086,
1,2021-02-05 10:09:23.9260,00:21,60,0,2021-02-05 10:09:27.7510,1612537767.751023,-0.0011211908422410488,-0.003835218260064721,0.004235491156578064,0.0136566162109375,-0.9097137451171875,-0.4228515625,-32.63584899902344,19.184341430664062,65.01422119140625,2021-02-05 10:09:30.5140,1612537770.514042,4.939418792724609,0.10090801864862442,1.0378493070602417,0.4850509762763977,1.0628515481948853,0.02123624086380005,
1,2021-02-05 10:09:23.9260,00:21,60,0,2021-02-05 10:09:27.7690,1612537767.768733,-0.0029646309558302164,-0.0030959248542785645,-0.001392300589941442,0.0127105712890625,-0.909027099609375,-0.42388916015625,-32.64642333984375,19.006912231445312,65.34172058105469,2021-02-05 10:09:30.5430,1612537770.543422,4.255488395690918,-0.15723195672035217,0.8945180177688599,0.48080873489379883,0.5713357925415039,-0.28949151933193207,
1,2021-02-05 10:09:23.9260,00:21,60,0,2021-02-05 10:09:27.7850,1612537767.7853432,-0.0010032127611339092,-0.0018181400373578072,0.0003552656853571534,0.01300048828125,-0.909423828125,-0.4225311279296875,-32.64642333984375,19.006912231445312,65.34172058105469,2021-02-05 10:09:30.5730,1612537770.573484,4.282674312591553,-0.5208577513694763,0.8581876158714294,0.6429939270019531,0.7119612693786621,-0.2321779429912567,
1,2021-02-05 10:09:23.9260,00:21,60,0,2021-02-05 10:09:27.8010,1612537767.801271,-0.002764627570286393,-0.0032386700622737408,0.002148105762898922,0.01300048828125,-0.90899658203125,-0.4217529296875,-32.54350280761719,18.946640014648438,65.05873107910156,2021-02-05 10:09:30.6030,1612537770.603339,9.24554443359375,-1.332168698310852,1.7343448400497437,0.7742953896522522,1.3123499751091003,0.05388137698173523,
1,2021-02-05 10:09:23.9260,00:21,60,0,2021-02-05 10:09:27.8180,1612537767.8176188,-0.0016234630020335317,-0.0043622576631605625,0.0031827439088374376,0.0134124755859375,-0.90997314453125,-0.4224853515625,-32.62408447265625,19.086471557617188,65.15306091308594,2021-02-05 10:09:30.6330,1612537770.633177,17.211091995239258,-2.249051332473755,2.7131786346435547,0.7256653904914856,0.7844914793968201,-0.15373992919921875,
1,2021-02-05 10:09:23.9260,00:21,60,0,2021-02-05 10:09:27.8350,1612537767.834765,0.0006418218254111707,-0.002118278294801712,0.0023608922492712736,0.012908935546875,-0.9097137451171875,-0.422607421875,-32.52146911621094,18.835922241210938,65.10282897949219,2021-02-05 10:09:30.6630,1612537770.663156,17.463855743408203,-2.197523593902588,2.9078524112701416,0.3864322304725647,-0.49603332579135895,-0.3281446695327759,
1,2021-02-05 10:09:23.9260,00:21,60,0,2021-02-05 10:09:27.8510,1612537767.851266,-0.002007757080718875,-0.0044349622912704945,0.0030482541769742966,0.0141754150390625,-0.910125732421875,-0.4209747314453125,-32.49021911621094,19.163970947265625,64.95121765136719,2021-02-05 10:09:30.6930,1612537770.693307,5.181270122528076,-1.4967609643936157,1.050101399421692,0.43465113639831543,-1.3359170854091644,-1.0261425971984863,
1,2021-02-05 10:09:23.9260,00:21,60,0,2021-02-05 10:09:27.8680,1612537767.8679981,-0.0029081718530505896,-0.0051878378726542,0.0030509172938764095,0.013214111328125,-0.9092254638671875,-0.421875,-32.74530029296875,19.259307861328125,64.8377685546875,2021-02-05 10:09:30.7230,1612537770.722909,-6.697579383850098,0.9686627388000488,0.5250946283340454,0.5002641677856445,-0.3872327208518982,-1.324817955493927,
1,2021-02-05 10:09:23.9260,00:21,60,0,2021-02-05 10:09:27.8840,1612537767.8844252,0.00046339002437889576,-0.0016820525052025914,0.0024639565963298082,0.0131683349609375,-0.9095916748046875,-0.4217376708984375,-32.74530029296875,19.259307861328125,64.8377685546875,2021-02-05 10:09:30.7530,1612537770.7526941,-12.394024848937988,1.0965200662612915,-0.6177001595497131,0.7291148900985718,-0.2731928862631321,-0.9093970060348511,
1,2021-02-05 10:09:23.9260,00:21,60,0,2021-02-05 10:09:27.9010,1612537767.901184,-0.0003009371866937727,-0.0028445222415030003,0.0046365633606910706,0.0125274658203125,-0.91021728515625,-0.42315673828125,-32.648468017578125,19.177642822265625,65.003173828125,2021-02-05 10:09:30.7830,1612537770.782728,-12.667664527893066,1.0898667573928833,-1.600097894668579,0.5241737365722656,0.015192508697509766,-0.07162970304489136,
1,2021-02-05 10:09:23.9260,00:21,60,0,2021-02-05 10:09:27.9180,1612537767.917901,-0.003043993143364787,-0.00700837466865778,0.0025092302821576595,0.012969970703125,-0.908935546875,-0.422149658203125,-32.7396240234375,19.038223266601562,64.99395751953125,2021-02-05 10:09:30.8130,1612537770.812633,-14.46022891998291,2.413912534713745,-2.3885927200317383,0.38420480489730835,-0.13543248176574707,0.43804043531417847,
1,2021-02-05 10:09:23.9260,00:21,60,0,2021-02-05 10:09:27.9350,1612537767.934678,-0.002916161436587572,-0.004573978949338198,-0.000609863898716867,0.013427734375,-0.9093170166015625,-0.4235992431640625,-32.70268249511719,19.064956665039062,64.79025268554688,2021-02-05 10:09:30.8430,1612537770.842556,-9.274359703063965,2.240131378173828,-1.0344650745391846,0.6012763381004333,1.0593120455741882,0.6096350848674774,
1,2021-02-05 10:09:23.9260,00:21,60,0,2021-02-05 10:09:27.9510,1612537767.9510288,-0.0023361248895525932,-0.003695135936141014,0.0019499665359035134,0.013580322265625,-0.9100341796875,-0.421905517578125,-32.67317199707031,19.1087646484375,65.04328918457031,2021-02-05 10:09:30.8720,1612537770.872355,1.1935802698135376,0.7354933619499207,0.7081925272941589,0.7172430157661438,1.8458867073059082,0.18853575736284256,
1,2021-02-05 10:09:23.9260,00:21,60,0,2021-02-05 10:09:27.9680,1612537767.9678211,-0.0018050905782729387,-0.005061337724328041,0.0030458574183285236,0.012115478515625,-0.91009521484375,-0.4220733642578125,-32.85455322265625,19.184967041015625,64.88638305664062,2021-02-05 10:09:30.9210,1612537770.920738,8.564959526062012,-0.44637078046798706,1.6110508441925049,0.5518827438354492,1.0957653522491455,-0.029250934720039368,
1,2021-02-05 10:09:23.9260,00:21,60,0,2021-02-05 10:09:27.9840,1612537767.984482,-0.002972087822854519,-0.0038123151753097773,0.0038304245099425316,0.0133819580078125,-0.9101715087890625,-0.4207763671875,-32.85455322265625,19.184967041015625,64.88638305664062,2021-02-05 10:09:30.9330,1612537770.932664,12.064498901367188,-0.870345413684845,2.2371654510498047,0.5538963675498962,0.5089455246925354,-0.0002397000789642334,
1,2021-02-05 10:09:23.9260,00:21,60,0,2021-02-05 10:09:28.0010,1612537768.001318,-0.005563876125961542,-0.0063063655979931355,0.001549959764815867,0.0135040283203125,-0.9095306396484375,-0.423248291015625,-32.653961181640625,19.05657958984375,64.8271484375,2021-02-05 10:09:30.9620,1612537770.96241,12.592767715454102,-0.8581423163414001,2.2672791481018066,0.7063005566596985,-0.09287157654762268,-0.5428842902183533,
1,2021-02-05 10:09:23.9260,00:21,60,0,2021-02-05 10:09:28.0180,1612537768.017807,-0.001544100814498961,-0.004060788080096245,0.0022024342324584723,0.0136260986328125,-0.9097747802734375,-0.421783447265625,-32.609466552734375,18.990524291992188,64.87977600097656,2021-02-05 10:09:30.9920,1612537770.99209,7.74493408203125,-0.249052032828331,1.7746226787567139,0.6730515956878662,-0.6952377483248711,-0.9045771956443787,
1,2021-02-05 10:09:23.9260,00:21,60,0,2021-02-05 10:09:28.0350,1612537768.034505,0.000892691605258733,-0.004336957819759846,0.0021528995130211115,0.013275146484375,-0.90936279296875,-0.4226531982421875,-32.61332702636719,19.113555908203125,65.01556396484375,2021-02-05 10:09:31.0220,1612537771.0221171,-3.4399075508117676,-0.0997292548418045,0.2410854697227478,0.7697008848190308,-0.8692474190611392,-1.244558036327362,
1,2021-02-05 10:09:23.9260,00:21,60,0,2021-02-05 10:09:28.0520,1612537768.051691,-0.0024684839881956577,-0.0037555897142738104,0.0022176143247634172,0.013519287109375,-0.9092254638671875,-0.422210693359375,-32.701690673828125,19.077789306640625,65.03175354003906,2021-02-05 10:09:31.0520,1612537771.052043,-13.99549674987793,0.46965309977531433,-1.491686463356018,0.7492387890815735,-0.17132984101772308,-0.6500763297080994,
1,2021-02-05 10:09:23.9260,00:21,60,0,2021-02-05 10:09:28.0670,1612537768.067008,-0.0009805759182199836,-0.0015371765475720167,0.0006945523782633245,0.0125274658203125,-0.9100799560546875,-0.421356201171875,-32.72483825683594,18.988677978515625,65.05326843261719,2021-02-05 10:09:31.0820,1612537771.081767,-14.744864463806152,0.513957679271698,-1.919931411743164,0.6973743438720703,0.5627492666244507,0.1560421586036682,
1,2021-02-05 10:09:23.9260,00:21,60,0,2021-02-05 10:09:28.0840,1612537768.084449,-0.001005343277938664,-0.0017755294684320688,0.0011411645682528615,0.0138702392578125,-0.9086761474609375,-0.4216156005859375,-32.69541931152344,18.963226318359375,65.15922546386719,2021-02-05 10:09:31.1120,1612537771.112112,-14.48349666595459,1.1837472915649414,-2.1021575927734375,0.5713831782341003,0.5385602116584778,0.4749450534582138,
1,2021-02-05 10:09:23.9260,00:21,60,0,2021-02-05 10:09:28.1020,1612537768.102036,-0.002028796123340726,-0.0009542105835862458,0.0009606021922081709,0.01397705078125,-0.9089813232421875,-0.42132568359375,-32.69541931152344,18.963226318359375,65.15922546386719,2021-02-05 10:09:31.1410,1612537771.141351,-7.592833042144775,0.2725045382976532,-0.3468741178512573,0.6445344090461731,1.3286744356155396,0.4202369377017021,
1,2021-02-05 10:09:23.9260,00:21,60,0,2021-02-05 10:09:28.1180,1612537768.117762,-0.0028967203106731176,-0.007405451964586973,0.0033161682076752186,0.0141754150390625,-0.909881591796875,-0.4221343994140625,-32.65299987792969,18.91998291015625,65.1876220703125,2021-02-05 10:09:31.1710,1612537771.171411,1.1554900407791138,0.4130919277667999,0.746849536895752,0.4194977879524231,1.17973393201828,0.20368294417858124,
1,2021-02-05 10:09:23.9260,00:21,60,0,2021-02-05 10:09:28.1350,1612537768.135021,-0.0029204224701970816,-0.002816559048369527,0.0007669904152862728,0.013336181640625,-0.90985107421875,-0.4215545654296875,-32.774444580078125,19.112442016601562,65.25653076171875,2021-02-05 10:09:31.2010,1612537771.201272,3.31242036819458,-0.183394193649292,1.203443169593811,0.5073727369308472,0.5085762739181519,0.12534553557634354,
1,2021-02-05 10:09:23.9260,00:21,60,0,2021-02-05 10:09:28.1510,1612537768.15101,-0.0014945659786462784,-0.003376621985808015,0.0011028150329366326,0.0132293701171875,-0.9095306396484375,-0.4221343994140625,-32.729949951171875,18.998016357421875,65.14717102050781,2021-02-05 10:09:31.2310,1612537771.230946,4.328371524810791,-0.33339622616767883,1.389992594718933,0.5973072648048401,0.6417704820632935,0.010326077230274677,
1,2021-02-05 10:09:23.9260,00:21,60,0,2021-02-05 10:09:28.1680,1612537768.1678739,0.00045353634050115943,-0.005889047868549824,4.660531703848392e-05,0.01239013671875,-0.9090728759765625,-0.422027587890625,-32.46331787109375,18.925018310546875,64.72006225585938,2021-02-05 10:09:31.2610,1612537771.261133,9.854378700256348,0.06448205560445786,2.010377883911133,0.8128675818443298,1.2929250597953796,-0.03418081998825073,
1,2021-02-05 10:09:23.9260,00:21,60,0,2021-02-05 10:09:28.1840,1612537768.1844568,0.0002820287481881678,-0.005401156842708588,0.0005411543534137309,0.0130767822265625,-0.909027099609375,-0.422393798828125,-32.651763916015625,19.251678466796875,64.66090393066406,2021-02-05 10:09:31.2910,1612537771.291038,16.42360496520996,-0.5909186601638794,2.4808197021484375,0.9508823156356812,1.2076008915901184,0.2049594521522522,
1,2021-02-05 10:09:23.9260,00:21,60,0,2021-02-05 10:09:28.2010,1612537768.201241,-0.0026346652302891016,-0.005775331053882837,0.0021310613956302404,0.012542724609375,-0.9097442626953125,-0.4223175048828125,-32.651763916015625,19.251678466796875,64.66090393066406,2021-02-05 10:09:31.3210,1612537771.320746,16.262779235839844,-0.9493811130523682,2.265712261199951,0.8438417315483093,-0.1939278393983841,-0.20505529642105103,
1,2021-02-05 10:09:23.9260,00:21,60,0,2021-02-05 10:09:28.2180,1612537768.217863,-0.0033910030033439398,-0.0030043120495975018,0.00039654469583183527,0.0140380859375,-0.910308837890625,-0.4213714599609375,-32.67897033691406,19.242721557617188,64.70686340332031,2021-02-05 10:09:31.3510,1612537771.3509722,6.755782127380371,-1.2718721628189087,1.7022756338119507,0.6343538761138916,-1.1399977505207062,-0.8189918994903564,
1,2021-02-05 10:09:23.9260,00:21,60,0,2021-02-05 10:09:28.2350,1612537768.234562,-0.0017251957906410098,-0.0054429685696959496,0.0025656893849372864,0.0142974853515625,-0.9104766845703125,-0.4219818115234375,-32.62672424316406,19.007461547851562,64.62669372558594,2021-02-05 10:09:31.3820,1612537771.381703,-9.347028732299805,-0.4875575304031372,-0.8657189011573792,0.6473394632339478,-0.8626697584986687,-1.1742312908172607,
1,2021-02-05 10:09:23.9260,00:21,60,0,2021-02-05 10:09:28.2510,1612537768.2510371,-0.0007171892793849111,-0.002748914761468768,0.002031192881986499,0.0132293701171875,-0.9097442626953125,-0.4216156005859375,-32.65380859375,19.081771850585938,64.90756225585938,2021-02-05 10:09:31.4110,1612537771.410752,-16.116262435913086,-1.3545935153961182,-1.1932932138442993,1.0411385893821716,0.25902827084064484,-0.5185768604278564,
1,2021-02-05 10:09:23.9260,00:21,60,0,2021-02-05 10:09:28.2680,1612537768.267739,-0.005633917171508074,-0.005123921670019627,0.0019481023773550987,0.013580322265625,-0.9091796875,-0.4212188720703125,-32.64300537109375,19.01806640625,64.83102416992188,2021-02-05 10:09:31.4400,1612537771.440446,-16.77338981628418,0.11004053801298141,-1.4684054851531982,0.49914705753326416,0.21031594276428223,0.04086771607398987,
1,2021-02-05 10:09:23.9260,00:21,60,0,2021-02-05 10:09:28.2850,1612537768.2845259,-0.004592088516801596,-0.0036248285323381424,0.002031459240242839,0.0128021240234375,-0.9095916748046875,-0.422515869140625,-32.60003662109375,18.7642822265625,64.98065185546875,2021-02-05 10:09:31.4700,1612537771.470391,-13.298201560974121,0.3337542712688446,-1.531602382659912,0.7892934679985046,0.5399631261825562,0.16660891473293304,
1,2021-02-05 10:09:23.9260,00:21,60,0,2021-02-05 10:09:28.3010,1612537768.30118,0.0006271744496189058,-0.0019054916920140386,0.0018351842882111669,0.0123291015625,-0.90960693359375,-0.4229888916015625,-32.60003662109375,18.7642822265625,64.98065185546875,2021-02-05 10:09:31.5040,1612537771.504465,-4.419831275939941,-0.1583227962255478,0.4446156919002533,0.5971853137016296,1.0091551542282104,0.48906858265399933,
1,2021-02-05 10:09:23.9260,00:21,60,0,2021-02-05 10:09:28.3180,1612537768.317802,-0.002145442645996809,-0.002183259464800358,0.0015984292840585113,0.0136871337890625,-0.9086761474609375,-0.4227142333984375,-32.54252624511719,18.7769775390625,65.07440185546875,2021-02-05 10:09:31.5300,1612537771.530396,2.8140406608581543,-0.0736478939652443,0.4621967375278473,0.5294362902641296,0.9225313067436218,0.3951203487813473,
1,2021-02-05 10:09:23.9260,00:21,60,0,2021-02-05 10:09:28.3350,1612537768.334662,-0.00159443449229002,-0.0025563682429492474,0.0018431737553328276,0.0136871337890625,-0.9091949462890625,-0.4225616455078125,-32.55003356933594,19.234848022460938,64.82768249511719,2021-02-05 10:09:31.5600,1612537771.560318,4.24146842956543,-0.9063167572021484,0.7054194808006287,0.6255662441253662,0.42871129512786865,0.09878118708729744,
1,2021-02-05 10:09:23.9260,00:21,60,0,2021-02-05 10:09:28.3510,1612537768.35109,-0.004763329867273569,-0.004342017695307732,0.0011707255616784096,0.0135345458984375,-0.9096832275390625,-0.4232025146484375,-32.67158508300781,19.264083862304688,65.09538269042969,2021-02-05 10:09:31.5910,1612537771.590508,7.390596389770508,-0.47331711649894714,0.8920015692710876,0.5705579519271851,0.8225259184837341,-0.19568032026290894,
1,2021-02-05 10:09:23.9260,00:21,60,0,2021-02-05 10:09:28.3680,1612537768.368019,-0.0015997608425095677,-0.0029579729307442904,0.003996073268353939,0.0128326416015625,-0.9097137451171875,-0.4215087890625,-32.666717529296875,19.207489013671875,64.70460510253906,2021-02-05 10:09:31.6200,1612537771.619936,14.619400024414062,-0.5886026620864868,0.9580936431884766,0.8129585981369019,1.213397204875946,-0.1905338168144226,
1,2021-02-05 10:09:23.9260,00:21,60,0,2021-02-05 10:09:28.3840,1612537768.384433,-0.0016940367640927434,-0.003878894029185176,0.0024559672456234694,0.0131683349609375,-0.910369873046875,-0.421661376953125,-32.63751220703125,18.99169921875,64.93171691894531,2021-02-05 10:09:31.6500,1612537771.649849,19.30030059814453,0.20142358541488647,1.3333302736282349,0.6745914220809937,0.5315337777137756,-0.13294225931167603,
1,2021-02-05 10:09:23.9260,00:21,60,0,2021-02-05 10:09:28.4010,1612537768.401228,-0.0016040218761190772,-0.0013393036788329482,0.0017531589837744832,0.013275146484375,-0.9102935791015625,-0.4209747314453125,-32.63751220703125,18.99169921875,64.93171691894531,2021-02-05 10:09:31.6790,1612537771.679276,13.643597602844238,-1.1964064836502075,1.6772817373275757,0.7832186222076416,-0.946287177503109,-0.588431179523468,
1,2021-02-05 10:09:23.9260,00:21,60,0,2021-02-05 10:09:28.4180,1612537768.417953,-0.0013022858183830976,-0.0029909962322562933,0.00361737166531384,0.0137481689453125,-0.90997314453125,-0.4221343994140625,-32.70091247558594,19.109710693359375,64.87547302246094,2021-02-05 10:09:31.7090,1612537771.709137,1.8265515565872192,-0.5806900858879089,0.9120561480522156,0.5006261467933655,-1.0900056660175323,-1.0434182286262512,
1,2021-02-05 10:09:23.9260,00:21,60,0,2021-02-05 10:09:28.4350,1612537768.434661,-0.0014948323369026184,-0.004850947763770819,0.002825613832101226,0.0130462646484375,-0.9088592529296875,-0.4224700927734375,-32.651519775390625,19.128402709960938,64.95988464355469,2021-02-05 10:09:31.7390,1612537771.7389941,-7.679886817932129,0.6837784647941589,0.3652973473072052,0.707306444644928,-0.38071732223033905,-1.0839450359344482,
1,2021-02-05 10:09:23.9260,00:21,60,0,2021-02-05 10:09:28.4510,1612537768.4510288,-0.0033486587926745415,-0.002667954657226801,0.002406965009868145,0.0125732421875,-0.9090728759765625,-0.422515869140625,-32.778656005859375,19.212448120117188,64.82008361816406,2021-02-05 10:09:31.7700,1612537771.769621,-8.3518705368042,-0.35527512431144714,-0.026790251955389977,0.9059911370277405,0.09645168483257294,-0.5902464985847473,
1,2021-02-05 10:09:23.9260,00:21,60,0,2021-02-05 10:09:28.4680,1612537768.467869,-0.0015009575290605426,-0.0017385114915668964,0.0012665993999689817,0.0134124755859375,-0.9103851318359375,-0.421478271484375,-32.78916931152344,19.192977905273438,65.23838806152344,2021-02-05 10:09:31.7990,1612537771.798729,-10.496358871459961,-0.5355051159858704,-1.1116350889205933,0.6620492935180664,0.1687740534543991,-0.46884745359420776,
1,2021-02-05 10:09:23.9260,00:21,60,0,2021-02-05 10:09:28.4840,1612537768.484459,0.0003001382574439049,-0.0038035267498344183,0.002959570847451687,0.0130462646484375,-0.909149169921875,-0.42144775390625,-32.709564208984375,19.276763916015625,64.95216369628906,2021-02-05 10:09:31.8320,1612537771.83175,-18.718772888183594,1.6246230602264404,-1.6036626100540161,0.40226835012435913,-0.5108288526535034,-0.09342354536056519,
1,2021-02-05 10:09:23.9260,00:21,60,0,2021-02-05 10:09:28.5010,1612537768.5013099,-0.0006157228490337729,-0.005420065484941006,0.0023819312918931246,0.0137939453125,-0.910186767578125,-0.421295166015625,-32.709564208984375,19.276763916015625,64.95216369628906,2021-02-05 10:09:31.8590,1612537771.859326,-17.114286422729492,1.0087709426879883,-1.3828425407409668,0.7514505982398987,0.4693293571472168,0.5681739002466202,
1,2021-02-05 10:09:23.9260,00:21,60,0,2021-02-05 10:09:28.5180,1612537768.5180612,-0.0015195996966212988,-0.0032178976107388735,0.0022951122373342514,0.0130157470703125,-0.90924072265625,-0.4210205078125,-32.65106201171875,19.084259033203125,65.25186157226562,2021-02-05 10:09:31.9190,1612537771.91917,-6.578812122344971,0.663098931312561,-0.45121338963508606,0.6053176522254944,1.4255664348602295,0.8128879517316818,
1,2021-02-05 10:09:23.9260,00:21,60,0,2021-02-05 10:09:28.5350,1612537768.534554,-0.0030210898257791996,-0.0049430932849645615,0.00196434766985476,0.0135955810546875,-0.9090423583984375,-0.42236328125,-32.70478820800781,19.070526123046875,65.39614868164062,2021-02-05 10:09:31.9260,1612537771.926429,2.9779770374298096,0.719536304473877,0.4514089524745941,0.4883134961128235,1.2673789262771606,0.5901551097631454,
1,2021-02-05 10:09:23.9260,00:21,60,0,2021-02-05 10:09:28.5520,1612537768.5519428,-0.0009925601771101356,-0.0028788771014660597,0.0031933963764458895,0.0126953125,-0.9090576171875,-0.4229278564453125,-32.666595458984375,19.171340942382812,65.23670959472656,2021-02-05 10:09:31.9480,1612537771.948484,4.661448955535889,0.21930301189422607,0.4148285686969757,0.5356306433677673,0.6276845932006836,0.049095407128334045,
1,2021-02-05 10:09:23.9260,00:21,60,0,2021-02-05 10:09:28.5680,1612537768.568028,-0.0013664679136127234,-0.0030892668291926384,0.004523911513388157,0.01318359375,-0.90948486328125,-0.42315673828125,-32.7216796875,19.0843505859375,64.84359741210938,2021-02-05 10:09:31.9780,1612537771.978097,8.186026573181152,0.3162696063518524,1.1369247436523438,0.5517131090164185,1.06251460313797,-0.11116501688957214,
1,2021-02-05 10:09:23.9260,00:21,60,0,2021-02-05 10:09:28.5850,1612537768.584615,-0.003638677066192031,-0.003703658003360033,0.0028879318851977587,0.012786865234375,-0.9089813232421875,-0.422943115234375,-32.706085205078125,19.032318115234375,65.03257751464844,2021-02-05 10:09:32.0080,1612537772.007932,18.82647132873535,0.1967557668685913,1.6788541078567505,0.5830080509185791,1.3360306024551392,0.1623086929321289,
1,2021-02-05 10:09:23.9260,00:21,60,0,2021-02-05 10:09:28.6010,1612537768.601327,-0.0014500912511721253,-0.00259418529458344,0.002799781272187829,0.0139007568359375,-0.9082183837890625,-0.4228515625,-32.724884033203125,19.007858276367188,65.23402404785156,2021-02-05 10:09:32.0380,1612537772.038002,22.27004051208496,-0.7369341850280762,2.447408437728882,0.4997251033782959,0.0030156075954437256,0.262443482875824,
1,2021-02-05 10:09:23.9260,00:21,60,0,2021-02-05 10:09:28.6180,1612537768.6180801,-0.0013065468519926071,-0.005908489227294922,0.002923884429037571,0.0143890380859375,-0.91015625,-0.4224090576171875,-32.724884033203125,19.007858276367188,65.23402404785156,2021-02-05 10:09:32.0680,1612537772.0682678,10.010380744934082,-1.6347490549087524,0.8579015135765076,0.7018585205078125,-1.4625368267297745,-0.802923858165741,
1,2021-02-05 10:09:23.9260,00:21,60,0,2021-02-05 10:09:28.6370,1612537768.63722,-0.001615473534911871,-0.004013117402791977,0.0015875103417783976,0.0144195556640625,-0.909210205078125,-0.4215087890625,-32.63233947753906,19.0157470703125,65.42396545410156,2021-02-05 10:09:32.1010,1612537772.101255,-4.147250175476074,-0.10031980276107788,-0.09458421170711517,0.5200048089027405,-0.7394673675298691,-1.2991394996643066,
1,2021-02-05 10:09:23.9260,00:21,60,0,2021-02-05 10:09:28.6520,1612537768.651736,-0.0036093820817768574,-0.0052325790748000145,0.001541171339340508,0.0141143798828125,-0.9100799560546875,-0.4222869873046875,-32.56761169433594,18.666458129882812,65.44300842285156,2021-02-05 10:09:32.1280,1612537772.1280742,-8.459905624389648,-0.5400526523590088,0.28278884291648865,0.9756476283073425,0.019562486559152603,-0.9703120589256287,
